Time (s),Acceleration x (m/s^2),Acceleration y (m/s^2),Acceleration z (m/s^2)
0.016127157,-0.973878801,9.608977318,-2.781656265
0.02615299,-0.964307547,9.60419178,-2.810968399
0.036179344,-0.945164919,9.60419178,-2.87318182
0.046205334,-0.935593665,9.570692062,-2.825325251
0.056232365,-0.978664458,9.565906525,-2.767299414
0.066258823,-1.00737834,9.637691498,-2.786442041
0.076284865,-1.012163997,9.666405678,-2.767299414
0.086311271,-1.002592683,9.623334885,-2.882753134
0.09633773,-0.940379322,9.675976753,-2.978466034
0.106364084,-0.973878801,9.709476471,-2.921038151
0.116390021,-0.983450115,9.719047546,-2.839682341
0.12641549,-1.002592683,9.642477036,-2.752942562
0.136442105,-0.935593665,9.532406807,-2.638087034
0.14646799,-0.787238657,9.498908043,-2.623729944
0.156494605,-0.590429008,9.532406807,-2.767299414
0.166521063,-0.556929469,9.541978836,-3.088535786
0.176547365,-0.930808008,9.599406242,-3.313461065
0.186573823,-1.466800332,9.800403595,-3.117249727
0.196599761,-1.768295884,9.786046028,-2.647658348
0.206625282,-1.634297848,9.532406807,-2.480160713
0.216651063,-1.251446247,9.403194427,-2.633301258
0.226676688,-0.825523794,9.42712307,-2.762513638
0.236702625,-0.61914283,9.484550476,-2.810968399
0.24672799,-0.715453982,9.565906525,-2.887538671
0.256753563,-1.016949654,9.656833649,-3.059821844
0.266779865,-1.442872047,9.628120422,-3.19382
0.276806271,-1.710868239,9.628120422,-3.208176851
0.286832521,-1.686939955,9.546764374,-3.031108141
0.296858823,-1.347159147,9.412766457,-2.762513638
0.306885282,-0.921236694,9.417551994,-2.849253654
0.316911948,-0.547358155,9.379266739,-3.050250769
0.326938198,-0.466002196,9.417551994,-2.882753134
0.336965542,-0.61914283,9.580264091,-2.657229662
0.346992313,-1.036092162,9.656833649,-2.62851572
0.357019396,-1.399801254,9.642477036,-3.145963669
0.367046323,-1.380658627,9.60419178,-3.452244759
0.377072521,-1.237089276,9.384052277,-3.753740549
0.387098875,-1.452443361,9.211769104,-4.290330887
0.39712523,-1.984248161,9.39840889,-4.218546391
0.40715174,-2.429313183,9.498908043,-3.552743435
0.41717825,-2.620738983,9.494122505,-3.165106058
0.427205021,-2.563311338,9.5754776,-3.236890793
0.437231323,-2.33838582,9.561120987,-3.145963669
0.447257469,-1.898106575,9.532406807,-3.040679455
0.457283459,-1.337587833,9.551549911,-3.150749207
0.467309448,-0.978664458,9.5754776,-3.696312666
0.477335125,-1.122233868,9.561120987,-4.189832687
0.48736049,-1.538584948,9.407979965,-4.390829563
0.497385698,-1.749153376,9.360123634,-4.400400639
0.50741075,-1.639083505,9.436694145,-4.199403763
0.517436323,-1.385444283,9.513264656,-4.17069006
0.52746174,-0.973878801,9.45583725,-4.14197588
0.53748674,-0.552143812,9.460622787,-3.677170277
0.54751174,-0.413360119,9.494122505,-3.868596077
0.557537573,-0.782453001,9.431908607,-4.323830605
0.567563927,-1.543370605,9.42712307,-4.084548473
0.577589865,-2.285743713,9.541978836,-3.91166687
0.587616792,-2.649452925,9.42712307,-4.055834293
0.59764299,-2.424527645,9.32662487,-3.792025566
0.607668459,-1.855035782,9.355338097,-3.504886866
0.617694136,-1.481157184,9.407979965,-3.500101328
0.627719605,-1.524227977,9.45583725,-3.337389469
0.63774523,-1.787438512,9.45583725,-3.241676569
0.647770334,-1.998605132,9.441479683,-3.203391314
0.657795646,-2.123031855,9.350552559,-3.217748165
0.667820959,-2.156531334,9.283554077,-3.131606579
0.677845959,-2.022533417,9.369695663,-3.4809587
0.68787174,-1.960319996,9.388837814,-3.662813187
0.697897105,-1.989033818,9.355338097,-3.509672642
0.707922313,-2.017747641,9.393623352,-3.476173162
0.71794898,-2.070389748,9.407979965,-3.619742393
0.727973823,-2.027318954,9.412766457,-3.70588398
0.737999188,-1.840678811,9.417551994,-3.89730978
0.748024396,-1.773081541,9.302696228,-3.892524242
0.758049657,-1.864607096,9.336195946,-3.763311863
0.768075125,-2.05124712,9.374481201,-3.763311863
0.778100177,-2.261815548,9.360123634,-3.614956856
0.788125646,-2.472383976,9.45583725,-3.715455294
0.798151271,-2.711666346,9.594620705,-3.452244759
0.80817773,-2.793022156,9.561120987,-3.069393158
0.818203355,-2.706880569,9.599406242,-3.2895329
0.828228927,-2.400599241,9.451051712,-3.179463148
0.838254605,-1.941177368,9.417551994,-3.366103172
0.848279605,-1.734796405,9.518050194,-3.91166687
0.858304969,-1.888535261,9.494122505,-4.098905087
0.868330438,-2.367099762,9.556335449,-4.046263218
0.878355073,-2.922234535,9.5754776,-3.820739508
0.888380334,-3.01376009,9.570692062,-3.538386583
0.898405646,-2.946761131,8.703892708,-4.405186653
0.908430802,-2.501097918,10.50449181,-5.224130154
0.918456011,-2.05124712,11.03569794,-3.011965513
0.928481636,-1.605584025,9.886545181,-4.022335052
0.938507313,-1.543370605,10.82034397,-3.902095556
0.948532782,-2.213959217,11.31805134,-3.308675528
0.958558198,-3.190829039,10.79641533,-3.701098442
0.968583823,-3.482753277,11.38564873,-3.452244759
0.978609084,-2.927020311,11.93121147,-3.390031576
0.988634813,-1.768295884,12.29492092,-4.764110088
0.998659865,-0.849452019,12.66401386,-4.945964336
1.008685959,-0.633499801,12.0412817,-3.586242914
1.018711948,-0.921236694,11.14098263,-2.978466034
1.028737573,-1.083948612,11.3760767,-3.069393158
1.038762782,-1.112662554,11.91206932,-3.323032379
1.048788146,-0.892522871,11.87378407,-3.035893679
1.058813875,-0.312861562,11.66800117,-2.504088879
1.068839657,0.52043891,11.68235874,-2.571087837
1.078865542,1.195214868,11.47657585,-2.638087034
1.088891948,1.467996716,11.13619614,-2.279163599
1.098918302,1.238285661,10.87777138,-2.159522533
1.108943563,0.769292474,10.85862923,-2.604587555
1.118968563,0.223130718,11.04048347,-2.810968399
1.128993615,0.069990061,10.82512951,-2.42273283
1.139019552,0.294915378,10.35613632,-2.724228621
1.149045073,0.750149906,10.01575756,-3.796811342
1.159070334,1.037288666,9.76211834,-4.33340168
1.169096063,0.908076167,9.307481766,-4.419543266
1.179121688,0.41934216,8.77089119,-4.352544308
1.189148042,-0.312861562,8.349754333,-3.112463951
1.199173355,-1.505085468,8.225327492,-1.747956991
1.209199136,-3.142972469,8.349754333,-1.158724308
1.219225386,-5.254638672,8.388039589,-0.713659346
1.229251636,-7.945367813,8.258827209,-1.642074585
1.239277677,-10.75573826,8.206185341,-2.839682341
1.24930398,-12.4558382,7.956733704,-2.62851572
1.259330334,-12.11127186,7.540382385,-3.906881094
1.269356115,-9.271589279,7.463811874,-4.625326157
1.279381896,-4.947759151,7.310671329,-2.796013355
1.289407365,-1.241874933,6.443871498,-0.737587571
1.299433355,0.261415869,5.44785881,0.062213387
1.3094595,-0.064008005,4.830510616,0.239282265
1.319485646,-1.222732425,4.639084816,-0.425922424
1.329511636,-2.209173441,5.050650597,-1.714457393
1.339537365,-2.67338109,5.672784328,-2.623729944
1.349562209,-2.826521635,6.022734642,-2.815753937
1.359586792,-3.31525588,6.21894598,-2.705085993
1.369611844,-4.37348175,6.53958416,-2.590230465
1.379636948,-5.857629776,7.157530785,-2.42273283
1.389661896,-7.403991699,7.880163193,-2.551945448
1.399687,-8.419146538,8.210970879,-2.618944407
1.409712209,-8.428717613,7.923233986,-2.145165443
1.419737417,-7.42313385,7.348956585,-1.757528186
1.429763771,-6.202196121,7.061817646,-1.7670995
1.439790021,-5.350351334,7.243672371,-1.905883193
1.449816584,-4.69411993,7.664809227,-1.91066885
1.459842782,-3.927818298,8.038687706,-1.627717614
1.469868355,-3.042474031,8.311469078,-1.326221943
1.479893355,-2.520240545,8.718249321,-1.268794179
1.489918146,-2.907877684,9.474979401,-1.493719578
1.499942261,-3.980460405,10.22692394,-2.001596212
1.509966896,-5.033900738,10.60020447,-2.226521492
1.519992052,-5.618347645,10.68634605,-2.039881229
1.530017052,-5.6566329,10.48056316,-2.279163599
1.54004174,-5.192425251,10.08754253,-2.394019127
1.550066792,-4.718048096,9.91047287,-1.968096614
1.560092209,-4.856831551,10.26042366,-1.838884234
1.570117469,-5.623133183,11.17448139,-2.126022816
1.580143355,-6.216553211,11.5579319,-2.269592285
1.590168563,-6.063412666,11.05484104,-2.24566412
1.600194292,-5.14397049,10.29392338,-2.202593327
1.610219969,-3.597608805,9.637691498,-1.297508121
1.620246011,-2.529811859,9.599406242,-0.608375132
1.630271636,-2.213959217,9.76211834,-1.244866014
1.640297469,-2.716451883,9.982257843,-1.680359721
1.650322938,-3.296113253,9.987043381,-2.446661234
1.660348667,-3.119044304,10.24128056,-3.083750248
1.670375334,-2.347957134,10.40399265,-3.184248686
1.680401219,-1.92203474,10.06839943,-3.270390272
1.69042799,-2.309672117,9.752547264,-3.035893679
1.700454396,-2.510669231,9.675976753,-2.609373093
1.710480334,-1.600798368,10.71506023,-2.528017044
1.720506792,0.136989102,14.27737427,-3.887738705
1.73053325,0.635294437,16.55175209,-3.739383698
1.740559709,-2.357528448,13.85145187,-4.003192425
1.750585698,-0.355932355,12.4241333,-2.781656265
1.760611636,6.505486488,11.36650562,5.157131195
1.770637938,6.61555624,9.048459053,2.834896564
1.780664448,-1.136590719,8.206185341,-6.080760479
1.790690334,-10.48295593,9.235696793,-5.764907837
1.800716688,-16.08036613,10.16889763,-0.96251291
1.810742469,-14.60100365,10.19282627,-0.33499518
1.82076799,-7.10249567,10.36092186,0.411565483
1.830793927,1.324427366,10.6480608,0.354137748
1.8408195,5.614758492,10.03011417,-2.011167526
1.850845386,4.465605259,9.307481766,-4.634897232
1.860871063,0.745364249,9.278767586,-5.477769375
1.870896532,-1.313659668,9.594620705,-3.126821041
1.880921896,-0.681356251,9.340981483,-2.303091764
1.890948355,0.218345061,8.746963501,-5.496912003
1.900974136,-0.226719946,8.617751122,-7.919644833
1.910999292,-1.347159147,8.833105087,-6.703492641
1.921024709,-1.576870084,8.97667408,-4.744967461
1.93105075,-0.466002196,9.192625999,-4.572684288
1.941076792,0.912861824,9.508479118,-4.931607246
1.951102261,1.57866478,9.551549911,-4.180261135
1.961127521,1.056431174,9.498908043,-3.691527128
1.971152469,-0.322432846,9.532406807,-4.060619831
1.981177417,-1.672582984,9.652048111,-4.338187218
1.991202677,-2.218744755,9.527621269,-4.419543266
2.001227521,-1.777867198,9.407979965,-4.55354166
2.011252521,-0.701097012,9.460622787,-4.68275404
2.021278407,0.385842651,9.503693581,-4.577469826
2.031303875,0.812363267,9.474979401,-4.491328239
2.04132898,0.668793917,9.513264656,-4.127619267
2.051354605,0.194416836,9.589835167,-4.098905087
2.061380177,-0.537786901,9.680762291,-3.969692707
2.071406011,-1.00737834,9.513264656,-3.4809587
2.081431584,-1.040877819,9.250054359,-3.3852458
2.091457365,-0.835095108,9.216554642,-3.974478483
2.101482209,-0.628714144,9.288339615,-4.228117466
2.111507469,-0.547358155,9.278767586,-3.80159688
2.12153325,-0.806381226,9.302696228,-3.5766716
2.131559188,-1.404586911,9.417551994,-3.811168194
2.141584761,-2.041675806,9.527621269,-3.748954773
2.151610438,-2.486740828,9.470193863,-3.447459221
2.161635698,-2.568096876,9.460622787,-3.710669756
2.171660802,-2.381456852,9.470193863,-3.806382656
2.181686011,-2.300100803,9.537193298,-3.562314749
2.19171148,-2.635095835,8.488538742,-3.979264021
2.201736323,-3.573680639,9.202198029,-7.048058987
2.21176148,-3.980460405,11.90728378,-3.002394199
2.221786532,-2.429313183,9.953543663,-2.24566412
2.231811115,-0.265005112,9.709476471,-3.337389469
2.241836636,1.042074203,10.71506023,-4.252045631
2.251862625,0.932004392,10.56191921,-4.558327198
2.261887886,0.515653253,10.35613632,-3.2895329
2.271913407,0.136989102,9.953543663,-3.361317635
2.281939448,-0.183649138,9.853045464,-4.644468784
2.29196549,-0.418145746,10.2652092,-4.371686935
2.301992157,-0.849452019,10.44227791,-4.275974274
2.312018563,-1.251446247,10.46142101,-4.926821709
2.322044813,-1.318445325,10.38963604,-4.835894585
2.332070907,-1.141376376,10.27956581,-4.601397991
2.342096896,-0.978664458,10.43749237,-4.36211586
2.35212273,-0.657428026,10.63370419,-3.619742393
2.362148667,-0.217148662,10.50449181,-3.179463148
2.372174552,0.160917327,10.61456108,-3.074178934
2.382200959,0.194416836,10.84427261,-2.997608662
2.392227052,-0.250648171,11.34257793,-3.203391314
2.402253407,-0.725025237,13.39143181,-4.55354166
2.412279865,-0.600000262,15.27817249,-6.483353138
2.422306688,0.146560386,15.09153271,-4.137190342
2.432332782,1.357926846,13.83709526,-3.945764542
2.442358875,2.550150633,12.87936783,-3.581457376
2.452384865,3.067598581,12.50130177,-2.988037348
2.462410073,2.761317253,12.58265781,-3.72024107
2.472435125,1.67437768,12.35713387,-3.715455294
2.482460386,0.898504913,11.45743275,-4.400400639
2.492485855,1.195214868,10.42313576,-5.611767292
2.502511584,2.038086653,9.407979965,-6.325426579
2.512537625,2.578864574,8.488538742,-5.482554913
2.522564136,1.951945066,8.029116631,-3.021536827
2.532589813,-0.217148662,8.220541954,-0.172283232
2.542614813,-4.05224514,8.402397156,0.267996132
2.552640698,-8.759525299,8.244470596,-2.997608662
2.562665802,-13.1455698,8.469395638,-5.578267574
2.572691219,-15.26620865,9.159127235,-7.215556622
2.582716427,-13.23649693,8.914461136,-5.066203594
2.592741427,-8.002795219,7.636095047,-2.547159672
2.602767157,-2.601596355,6.329015732,-2.350948334
2.612792105,0.280558467,5.691926956,-1.431506157
2.622817157,-0.159720913,5.807380676,-0.023928227
2.632842521,-1.907677889,6.032305717,0.224925324
2.642867469,-3.454039574,6.161518097,-0.311066955
2.652893198,-4.497908592,6.20458889,-0.91465646
2.662918407,-4.746761799,6.190232277,-1.656431437
2.672943823,-3.918246984,5.860022545,-2.14995122
2.682968823,-2.271386862,5.189434052,-1.230509043
2.69299299,-1.251446247,4.504488468,0.38285163
2.70301825,-1.509871125,4.782654285,-0.52642101
2.71304325,-2.773879766,6.180660725,-1.819741607
2.723067938,-4.536193371,7.841877937,-2.087737799
2.733092834,-6.628716946,8.756534576,-2.015953064
2.74311825,-8.946166039,8.632107735,-2.647658348
2.753144344,-10.56431198,8.076972961,-2.810968399
2.76317075,-10.77966595,7.731808186,-1.508076429
2.773196323,-9.534799576,7.593024254,-0.708873689
2.783222625,-7.466803074,7.549953461,-0.713659346
2.79324799,-5.412564754,7.554739475,-1.01036942
2.803274865,-3.602394581,7.908876896,-0.871585667
2.813301115,-2.300100803,8.49332428,-0.976869822
2.823327105,-1.404586911,8.986245155,-1.383649707
2.833352782,-1.10309124,9.585049629,-1.661217093
2.843378302,-1.749153376,10.29870892,-2.068595171
2.853404865,-3.458825111,10.88255692,-2.398804665
2.86343174,-5.508277893,11.21276665,-2.355733871
2.873459188,-7.370491982,11.60100269,-2.307877541
2.883486271,-8.635098457,11.96471119,-2.461018085
2.893512365,-8.812167168,11.91206932,-2.6620152
2.903538771,-7.954938889,11.59143066,-3.131606579
2.913564761,-6.432505608,10.94477081,-3.777668715
2.923591532,-4.804189682,10.56670475,-3.437887907
2.933618563,-4.124628067,11.04526901,-2.260020971
2.943645542,-4.598406792,11.22712421,-2.748156786
2.953672209,-3.980460405,10.11147022,-3.979264021
2.96369898,-2.032104731,9.776474953,-3.131606579
2.973725073,-0.533001244,10.27956581,-3.169891834
2.983751688,-0.547358155,10.01575756,-3.844667673
2.993777417,-1.347159147,9.240483284,-3.232105255
3.003802834,-2.06560421,8.895318031,-2.039881229
3.013828355,-2.505883455,8.608179092,-1.886740685
3.023853875,-2.659024239,8.148757935,-2.183450699
3.033879448,-2.980260611,7.918448448,-2.800798893
3.043905073,-3.224328518,10.2221384,-5.669195175
3.053931011,-0.729810894,20.18106651,-12.27218914
3.063956167,10.81496048,24.63889503,-5.717051506
3.073980802,16.13958931,13.3148613,14.53221035
3.084005594,7.621140003,6.343372822,-1.512862086
3.094030802,1.741376638,7.72223711,-4.706682205
3.104055334,-4.770689964,11.16012478,-4.070191383
3.114079969,-9.056235313,11.22712421,-1.287936807
3.124104969,-10.84726334,10.36092186,0.454636306
3.134129917,-9.037093163,9.527621269,-0.076570325
3.144154865,-4.631906509,8.8474617,-1.369292736
3.154179969,-0.623928487,8.416753769,-2.810968399
3.164205177,0.43908295,8.924032211,-5.257629395
3.174230438,-0.513858676,9.63290596,-6.291927338
3.184256532,-0.701097012,9.963115692,-5.171487808
3.194282573,0.99900347,9.876974106,-2.19780755
3.204308302,2.689532757,9.288339615,-2.360519648
3.214333875,2.109871387,8.82831955,-4.950749874
3.224359709,-0.255433828,8.981459618,-5.793622017
3.23438575,-2.534597397,9.364909172,-5.171487808
3.244411532,-3.34875536,9.642477036,-4.821537495
3.254437834,-2.81695056,9.537193298,-4.855037212
3.264464344,-1.931606054,9.111269951,-5.214558601
3.27449049,-1.117448211,9.163912773,-5.669195175
3.284515802,-0.566500783,9.589835167,-4.797609329
3.294541011,-0.66699934,9.848259926,-3.327818155
3.304566167,-1.275374413,9.972686768,-2.695514679
3.314591011,-1.557727575,9.953543663,-2.547159672
3.324615334,-1.021735311,9.79083252,-2.901895761
3.334640907,-0.226719946,9.60419178,-4.242474556
3.344666948,0.342771858,9.503693581,-5.224130154
3.354693355,0.606580555,9.39840889,-5.012963295
3.36471924,0.740578592,9.111269951,-4.194618225
3.374745073,1.066002488,9.010173798,-3.658027649
3.384771063,1.645663738,9.101698875,-3.504886866
3.394796427,2.081157446,9.086744308,-3.509672642
3.404822417,1.980658889,9.149555206,-3.820739508
3.414847938,1.133001566,9.522835732,-4.0127635
3.42487299,-0.207577363,9.675976753,-3.906881094
3.434898511,-1.596012712,9.623334885,-3.485744476
3.444923927,-2.630310297,9.599406242,-3.169891834
3.454949865,-3.243471146,9.73340416,-3.361317635
3.464975542,-3.439682484,9.776474953,-3.629313707
3.475001323,-3.224328518,9.680762291,-3.5766716
3.485027365,-3.190829039,8.455039024,-4.409972191
3.495052573,-3.774677753,9.556335449,-7.522436142
3.505078146,-3.669393539,11.71585751,-3.198605776
3.51510299,-1.696511269,9.652048111,-1.953739643
3.525127417,0.817148924,9.374481201,-2.954537868
3.535152677,2.368296146,10.34177971,-3.777668715
3.545178042,2.042872429,10.46142101,-3.916452408
3.55520398,0.687936485,10.47099209,-2.752942562
3.565229292,-0.777667344,10.40399265,-3.327818155
3.575254917,-1.821536183,10.4279213,-4.663611412
3.585280594,-2.032104731,10.31306553,-4.065405846
3.595306323,-1.596012712,9.929615974,-4.108476639
3.605332052,-1.05523479,9.982257843,-5.166702271
3.61535773,-0.710668325,10.37049294,-4.371686935
3.625383198,-0.604785919,10.37049294,-3.859024763
3.635408198,-0.595214605,10.48056316,-3.351746321
3.645432834,-0.580857694,10.78684425,-3.026322365
3.655457209,-0.671784937,11.08355427,-3.136392355
3.665482365,-0.763310432,11.64407349,-3.174677372
3.675506532,-0.600000262,13.14257813,-4.113262177
3.685531375,0.017347964,14.55972767,-6.914061069
3.69555575,1.113858938,14.90010643,-5.00339222
3.705580698,2.526222467,14.65065479,-5.434698582
3.715606271,4.044468403,14.65544033,-5.697908878
3.725632261,4.642673969,13.74616814,-3.538386583
3.735658042,4.264608383,13.04207993,-4.04147768
3.745683823,3.134597778,13.00379467,-4.175475597
3.755709396,2.09072876,12.09870911,-3.241676569
3.765734865,2.330011129,11.04526901,-4.419543266
3.775760542,2.766103029,10.11625576,-5.444269657
3.785786011,2.349153519,9.293125153,-5.683551788
3.795810386,1.727019787,8.775676727,-5.075775146
3.805835438,0.726221681,8.756534576,-1.6181463
3.815860438,-1.955534339,8.756534576,1.91066885
3.825885646,-6.39900589,8.134400368,-0.220139682
3.83591075,-11.51725388,7.889734268,-4.500899315
3.845936532,-15.49173164,8.512466431,-6.789634228
3.855962417,-15.92244053,9.135198593,-5.764907837
3.865988302,-11.62253761,8.445467949,-2.901895761
3.876012573,-5.120042324,6.961319447,-1.819741607
3.886038355,0.141774744,5.586642742,-0.521635354
3.89606299,1.013360381,4.844867706,0.468993247
3.906087365,-1.241874933,4.883152962,-0.090927258
3.916112625,-3.171686411,5.299503803,-0.91465646
3.926138511,-3.54018116,5.572285652,-0.905085146
3.936163875,-2.91266346,5.486144066,-0.646660328
3.946189552,-2.496312141,5.237290382,-1.067797065
3.956214917,-2.625524759,5.09372139,-1.436291814
3.966240646,-3.195614576,5.127220631,-1.5224334
3.976266063,-3.961317778,5.428716183,-1.082154036
3.98629174,-4.698905468,5.88395071,-1.24965167
3.996317105,-5.455635548,6.606583118,-1.57028985
4.006342261,-6.317649841,7.329813957,-1.57028985
4.016367365,-7.384849072,7.382455826,-1.886740685
4.026392105,-8.395217896,6.999604225,-2.370090723
4.036417417,-8.764310837,6.754938126,-2.025524378
4.046442625,-8.428717613,6.802794933,-1.2352947
4.056467625,-7.600800991,7.19581604,-0.948155999
4.066492365,-6.580860615,7.741379261,-0.967298567
4.076516792,-5.417350292,8.292326927,-0.852443039
4.086541688,-4.047459602,8.555537224,-0.81894356
4.096566948,-2.391027927,8.871390343,-1.18743825
4.106592365,-0.839880764,9.73340416,-1.579861164
4.116618146,-0.269790739,10.78684425,-2.188236237
4.126643302,-1.280160069,11.59143066,-2.983251572
4.136668875,-3.698107481,12.43848991,-3.524029493
4.146694605,-6.700501442,13.42014599,-3.62452817
4.15672075,-9.061020851,13.31007576,-3.165106058
4.166746584,-10.19103146,12.69272804,-2.719442844
4.176771323,-9.659226418,11.49093246,-3.145963669
4.186796323,-7.442874908,10.0779705,-3.050250769
4.196821167,-4.579264164,9.422337532,-2.130808592
4.206846115,-2.252244234,10.1210413,-2.585444927
4.216870594,-0.753739119,11.08355427,-4.52482748
4.226895542,0.127417803,10.75813103,-5.051846981
4.236921063,-0.078364938,10.04925728,-3.835096598
4.246946063,-1.155733347,9.872187614,-2.417947292
4.256970438,-2.324028969,9.565906525,-1.599003673
4.266995698,-3.396611691,8.82831955,-1.589432478
4.277021115,-4.05224514,8.541180611,-1.656431437
4.287045855,-4.493122578,8.565108299,-1.077368379
4.297071271,-5.4652071,8.301898003,-1.287936807
4.307096219,-6.058627129,11.05962658,-5.444269657
4.317121532,-2.14696002,24.06461716,-14.02433395
4.32714674,14.81276894,25.39562416,-0.708873689
4.337172521,18.32722664,11.27498055,14.32164192
4.347197625,9.732806206,4.844867706,-4.405186653
4.357222782,2.248655081,6.774080753,-7.642077446
4.367247521,-6.810571671,11.51964664,-5.204987526
4.377272469,-12.86740398,11.20798111,1.436291814
4.387298042,-13.97827148,9.302696228,1.240080357
4.397323511,-9.966106415,8.938388824,0.459421933
4.407349292,-3.477967739,9.116056442,-1.18743825
4.417375177,0.146560386,8.790034294,-5.114060402
4.427401011,-0.317647219,8.794819832,-8.182855606
4.437426844,-2.76909399,9.848259926,-8.480163574
4.447453042,-3.152543783,10.68156052,-3.49531579
4.457478719,0.213559419,10.36092186,-0.315852582
4.467504657,3.75673151,8.9479599,-3.002394199
4.477530334,4.336392879,8.321041107,-6.152545452
4.487556532,2.47358036,8.866603851,-6.196214199
4.497582938,0.022133609,9.465408325,-5.597410202
4.507608563,-2.06560421,9.881759644,-5.693123341
4.517634448,-3.147758245,9.757332802,-5.477769375
4.527660386,-2.855235577,9.407979965,-4.66839695
4.537686532,-1.710868239,9.446265221,-3.648456335
4.547712886,-0.456430912,9.565906525,-3.519243956
4.557739032,0.237487644,9.661619186,-4.405186653
4.56776424,0.256630242,9.943972588,-4.453042984
4.577789605,-0.207577363,10.16411209,-3.337389469
4.587814761,-0.768096089,9.987043381,-2.978466034
4.597840282,-0.720239639,9.580264091,-3.662813187
4.607865855,0.046061836,9.278767586,-4.520041943
4.617892261,0.946361363,9.139984131,-4.926821709
4.627919292,1.520638824,9.062815666,-4.907679081
4.637945907,1.932802439,8.938388824,-4.701896667
4.647972052,1.999801517,9.038887978,-4.438685894
4.657998355,1.424925923,9.360123634,-4.060619831
4.668024448,0.314057976,9.508479118,-3.61017108
4.678049396,-0.964307547,9.072386742,-3.241676569
4.688075334,-2.620738983,7.789236069,-5.200201988
4.698101219,-3.836891174,10.73420238,-5.712265968
4.708127209,-4.091128349,10.92562866,-1.527219057
4.718153511,-2.678166628,8.79960537,-1.670788407
4.72817924,-0.604785919,9.695118904,-2.897109985
4.738204917,0.826720238,10.27956581,-3.950550079
4.748230646,0.640080035,9.800403595,-4.295116425
4.758256115,-0.006580262,9.958329201,-3.595814228
4.768281844,-0.547358155,9.757332802,-2.911466837
4.778307521,-0.782453001,9.302696228,-3.433102369
4.788333042,-1.036092162,9.42712307,-3.734597921
4.798358823,-1.452443361,9.417551994,-3.777668715
4.808384344,-1.82632184,9.096913338,-3.988835335
4.818410855,-2.209173441,9.211769104,-4.319045067
4.828436375,-2.730808735,9.63290596,-3.337389469
4.838462261,-3.157329559,9.580264091,-2.733799934
4.848488042,-2.999403238,9.656833649,-3.102892876
4.858513355,-2.582453728,9.991828918,-3.974478483
4.868538615,-2.38624239,10.21735287,-3.753740549
4.878564032,-2.424527645,9.972686768,-3.758526087
4.888589344,-2.582453728,9.695118904,-4.299902439
4.898615177,-2.687737942,10.1832552,-4.228117466
4.908640802,-2.754737139,10.47577763,-3.955335855
4.918666219,-2.553740025,10.43749237,-3.294318676
4.92869148,-2.099103689,10.56670475,-3.447459221
4.938717105,-1.514656782,10.71984577,-3.643670797
4.948743042,-0.902094126,10.77727318,-3.423531055
4.958767938,-0.509073019,10.73420238,-3.366103172
4.968793719,-0.499501735,10.65284634,-3.528815269
4.97881898,-0.710668325,10.71027374,-3.62452817
4.98884523,-0.988235772,11.00219822,-3.61017108
4.998871271,-1.165304661,11.67278671,-3.993621111
5.008896948,-1.069591761,13.2717905,-5.434698582
5.01892325,-0.518644333,14.07637787,-6.478567123
5.028948771,0.213559419,13.16172123,-4.161118507
5.038974396,1.765304923,12.64965725,-4.993820667
5.04900023,3.321237803,13.3770752,-5.348556995
5.059026011,4.235894203,13.3770752,-4.634897232
5.069051688,4.594817638,12.79801178,-4.429114819
5.079077209,4.709673405,12.64487171,-5.157131195
5.089103355,5.255835056,12.14656639,-5.204987526
5.099128823,6.065207005,11.17926693,-6.095117569
5.109153875,6.457630157,10.2652092,-6.507281303
5.119179292,5.480760098,9.168698311,-5.860620975
5.129204813,3.311666489,8.498109818,-6.646064758
5.13923049,1.453639746,9.240483284,-4.371686935
5.149256219,-0.542572558,10.25085258,0.795015335
5.159282469,-3.803391695,9.786046028,2.106880426
5.169308511,-8.476573944,8.991030693,-0.67537421
5.179334032,-12.9009037,9.0921278,-6.042475224
5.189359657,-15.28594971,9.929615974,-10.00738239
5.199385021,-13.83948803,9.963115692,-8.225926399
5.20941075,-9.094520569,8.450253487,-4.065405846
5.219436792,-4.612763882,6.577869415,-2.499303341
5.229462469,-2.572882652,5.524429321,-1.579861164
5.239488198,-3.10947299,5.127220631,-0.656231582
5.24951398,-4.603192329,4.763511658,-0.929013371
5.259539761,-5.618347645,4.763511658,-1.786242127
5.269565646,-5.733202934,4.926223755,-2.188236237
5.279591167,-5.216353416,4.715655327,-1.944168448
5.289616011,-4.660620213,4.250849247,-2.087737799
5.299641115,-4.186841488,3.820141315,-2.551945448
5.309666636,-4.028316975,3.489931822,-1.724028707
5.319692625,-4.426123619,3.537788391,-1.086939692
5.32971799,-4.928616524,4.29392004,-1.311864972
5.339743355,-5.393422127,5.553143024,-1.421934843
5.349768927,-5.857629776,6.338587284,-1.469791293
5.359793927,-6.767500877,6.23330307,-1.982453585
5.369818719,-7.830512047,6.008377552,-2.810968399
5.37984398,-8.337790489,6.24766016,-2.484946251
5.389868875,-8.031509399,6.687939167,-1.57028985
5.399894344,-6.882356167,7.243672371,-1.1395818
5.409919344,-5.522634506,7.803592682,-1.28315115
5.419943823,-4.512265205,8.10090065,-2.082952023
5.429968667,-3.966103554,8.694320679,-2.959323406
5.43999325,-3.559323788,9.83868885,-3.318246841
5.450017834,-3.147758245,11.0309124,-3.059821844
5.460042834,-3.611965895,11.99342537,-3.323032379
5.470067834,-5.608776093,13.05643654,-4.534399033
5.480092521,-8.395217896,13.85623741,-5.449055195
5.490117521,-10.3728857,13.75573921,-4.888536453
5.500142157,-10.39681435,12.49651623,-4.189832687
5.510167313,-8.457431793,11.18405342,-3.4809587
5.520192521,-5.97727108,10.69591713,-2.207378864
5.53021799,-5.100899696,10.84427261,-2.193022013
5.540243927,-4.708476543,10.29870892,-4.520041943
5.550269136,-3.387040377,9.891330719,-4.314259052
5.560294396,-1.907677889,9.83868885,-2.911466837
5.570319605,-1.323230863,10.01097202,-2.849253654
5.580345386,-1.667797327,9.953543663,-3.504886866
5.590370907,-2.094317913,9.728618622,-2.748156786
5.600396427,-2.247458696,9.369695663,-1.244866014
5.610421167,-2.596810818,8.804390907,-0.430708081
5.620447,-3.305684566,8.268398285,-1.05822587
5.63047273,-3.755535126,11.23190975,-4.744967461
5.640498094,1.233500123,25.7019062,-12.10469151
5.650523615,20.28096581,28.09113884,0.133998066
5.660549084,21.6359024,8.498109818,16.42852211
5.670574552,9.670592308,1.93340075,-1.1395818
5.680600073,1.631306887,6.99003315,-11.87019539
5.690626427,-9.419944763,10.91605663,-3.490530014
5.70065174,-17.74218178,10.36092186,4.405186653
5.710677938,-19.99741745,8.636893272,-0.248853549
5.720703771,-14.72543049,8.206185341,-4.788038254
5.730729344,-5.62791872,9.072386742,-4.065405846
5.740755334,0.841077149,9.0921278,-4.510470867
5.750780646,2.243869543,9.024530411,-7.551149845
5.760805959,0.874576688,9.671191216,-8.657232285
5.770831375,0.482153773,10.08275604,-4.481756687
5.780857365,2.373081923,9.666405678,-1.728814363
5.790883563,3.579662561,9.111269951,-3.667598963
5.800909605,1.727019787,9.048459053,-5.012963295
5.810935177,-1.730010748,9.149555206,-4.02712059
5.820960698,-4.215555191,9.422337532,-3.457030535
5.830986323,-4.765904427,9.580264091,-4.414757729
5.841011792,-3.76510644,9.417551994,-5.693123341
5.851037261,-1.984248161,9.355338097,-5.946762562
5.861063198,-0.432502687,9.42712307,-5.041677475
5.871088927,0.170488611,9.479764938,-3.863810301
5.881114761,-0.422931403,9.63290596,-3.490530014
5.891140542,-1.399801254,9.848259926,-3.423531055
5.90116648,-2.056032896,9.905687332,-3.318246841
5.911192052,-2.381456852,9.814760208,-3.638885021
5.921217521,-2.424527645,9.589835167,-4.376472473
5.931242834,-1.777867198,9.321838379,-4.749752998
5.941268355,-0.705882668,9.302696228,-4.055834293
5.95129281,0.242273286,9.206983566,-3.792025566
5.961318748,0.640080035,9.159127235,-3.892524242
5.971344633,0.4869394,9.32662487,-3.672384501
5.981370883,-0.145363972,9.522835732,-3.710669756
5.991396873,-1.05523479,9.637691498,-4.046263218
6.001423019,-1.82632184,9.680762291,-3.70588398
6.011448383,-2.314457655,9.585049629,-3.485744476
6.021474425,-2.654238462,8.952746391,-3.873381615
6.031500102,-3.415754318,9.183054924,-6.602993965
6.041525414,-3.832105398,10.91605663,-3.366103172
6.051551508,-3.138186932,10.0779705,-2.863610506
6.061576977,-1.734796405,9.848259926,-3.265604734
6.071603175,-0.725025237,10.56670475,-4.074976921
6.081629008,-0.777667344,10.47577763,-4.673182487
6.09165531,-1.351944804,10.35613632,-3.863810301
6.101682185,-1.710868239,10.25085258,-4.285545349
6.111708696,-1.433300734,9.920044899,-4.85982275
6.121734894,-0.590429008,9.752547264,-4.582255363
6.131760831,0.18005991,9.671191216,-5.592624664
6.141787133,0.242273286,10.27956581,-6.59342289
6.151813904,-0.245862529,11.02612686,-5.008177757
6.161840102,-0.686141908,10.85862923,-4.031906128
6.171866664,-0.585643351,10.8682003,-3.174677372
6.181893539,-0.016151553,10.99741268,-2.733799934
6.191919581,0.443868607,10.82034397,-2.633301258
6.201945883,0.530010223,10.59063339,-2.585444927
6.211972654,0.151346028,10.50927734,-3.217748165
6.221998956,-0.418145746,10.67677498,-3.514458179
6.232025258,-0.806381226,11.11226845,-3.437887907
6.242051144,-0.652642369,12.54437256,-3.906881094
6.25207755,0.093918286,14.37308788,-6.411568165
6.262104269,1.238285661,14.78525066,-5.477769375
6.272130258,2.353939295,14.31087399,-5.032105923
6.282156456,3.230310678,14.07637787,-5.870192051
6.292181873,3.364308596,13.31964684,-3.91166687
6.302207862,3.067598581,12.48694515,-3.026322365
6.312234321,2.598007202,12.10828114,-3.643670797
6.322260935,2.219941139,11.74935722,-4.017549038
6.332287237,1.951945066,10.77248764,-4.826323509
6.342313383,1.688734531,9.565906525,-6.330212116
6.352339529,1.501496196,8.880961418,-5.61655283
6.362365102,1.075573802,9.000602722,-0.358923405
6.372391039,-1.442872047,9.106484413,3.117249727
6.382417758,-6.422934055,8.957531929,-0.445065022
6.392444269,-11.79003525,9.010173798,-4.319045067
6.402471612,-15.30509186,9.819545746,-7.225128174
6.412498331,-14.29950809,9.561120987,-6.545566559
6.422524998,-9.214161873,7.612166882,-3.614956856
6.432552237,-3.20518589,5.749952793,-2.590230465
6.4425788,0.668793917,4.763511658,-1.01036942
6.452605727,0.611366212,4.537988186,1.000798106
6.462633071,-1.237089276,4.686941147,0.972084224
6.47266005,-2.596810818,5.007579803,-0.129212424
6.482688019,-3.377469063,5.371288776,-1.063011408
6.492715154,-3.750749588,5.701498032,-1.81495595
6.502742029,-4.129413605,5.740381718,-2.494517565
6.512768748,-4.684548378,5.486144066,-2.897109985
6.522795623,-4.828117847,5.227719307,-2.461018085
6.532822446,-4.569693089,5.170291424,-1.608574986
6.542849633,-4.277768612,5.390431404,-1.244866014
6.552876196,-4.478765965,5.879165173,-1.043868899
6.562902133,-5.694917679,6.587440968,-1.536790371
6.572928123,-7.725227833,7.214958668,-2.892324448
6.582954894,-9.625727654,7.19581604,-3.586242914
6.592981196,-10.39202881,6.769295216,-3.050250769
6.603008071,-9.683753014,6.448657036,-1.853241086
6.61303406,-8.026723862,6.496513367,-1.240080357
6.623060727,-6.101697922,6.769295216,-1.244866014
6.633087237,-4.464408875,7.157530785,-1.264008522
6.643113956,-3.339184046,7.626523972,-1.498505235
6.65314005,-2.596810818,8.301898003,-1.881955028
6.663166352,-2.324028969,9.331410408,-2.025524378
6.673192446,-2.879163742,10.44227791,-2.62851572
6.683218748,-4.047459602,11.14576817,-3.466601849
6.693244581,-5.431707382,11.61535931,-3.859024763
6.703270935,-6.767500877,12.36192036,-3.744169235
6.713297237,-7.720442295,12.81236839,-3.126821041
6.723323904,-7.835297585,12.2039938,-2.954537868
6.733350258,-7.112067223,11.28455162,-3.007179976
6.743376248,-5.876772404,10.77248764,-2.772084951
6.753402758,-4.880760193,10.98305607,-2.355733871
6.763429477,-3.975674868,11.01655579,-3.078964472
6.773454894,-2.300100803,10.13061333,-3.055036306
6.783480258,-0.652642369,10.03011417,-2.049452543
6.793506144,0.491725057,10.42313576,-2.705085993
6.803531873,1.195214868,10.21735287,-2.709871531
6.813557498,1.233500123,9.45583725,-1.594218135
6.823582862,0.208773777,8.97667408,-1.24965167
6.833608748,-1.337587833,8.871390343,-1.407577872
6.843634477,-2.994617462,8.751749039,-1.532004714
6.853660883,-3.31525588,12.29013538,-5.970690727
6.863687185,2.842673302,25.40998268,-13.6606245
6.873712914,15.34457302,24.45225525,-2.403590441
6.883738956,13.8358984,9.374481201,10.18923664
6.893764946,6.021538258,5.644070625,0.646660328
6.903790727,-0.408574462,8.522037506,-6.617351055
6.913815987,-8.883952141,9.647262573,-2.623729944
6.923841925,-16.95673752,9.900901794,3.131606579
6.933867758,-19.76710701,9.240483284,-0.938584685
6.943893383,-15.98465347,8.689535141,-2.815753937
6.953918904,-7.452445984,8.943174362,-0.751944542
6.963944737,0.376271367,9.183054924,-1.891526341
6.973970987,4.36989212,9.336195946,-6.794419765
6.983997289,3.900899172,9.307481766,-10.53380394
6.994023383,1.233500123,9.029315948,-8.158926964
7.004050154,-0.413360119,9.024530411,-4.419543266
7.014075883,-0.892522871,9.312267303,-3.796811342
7.024101248,-2.012962103,9.436694145,-4.04147768
7.034126456,-3.784249067,9.019744873,-4.390829563
7.044151925,-4.722833633,9.034101486,-4.567898273
7.054178539,-4.047459602,9.541978836,-4.754538536
7.064204998,-2.314457655,9.623334885,-5.444269657
7.074232029,-0.509073019,9.29791069,-6.008975983
7.084258435,0.573081017,9.216554642,-5.066203594
7.09428505,0.43908295,9.273982048,-3.677170277
7.104311352,-0.806381226,9.498908043,-3.648456335
7.114336925,-2.304886341,9.93918705,-3.830310822
7.12436255,-3.291327477,10.10189915,-3.2895329
7.134388331,-3.406183004,9.786046028,-3.457030535
7.144414321,-2.855235577,9.479764938,-4.323830605
7.154441039,-1.969891191,9.302696228,-4.792823792
7.164467081,-1.002592683,9.149555206,-4.902893543
7.174492654,-0.169292197,9.019744873,-4.606183529
7.184518227,0.41934216,8.986245155,-3.988835335
7.194543487,0.352343142,8.991030693,-3.979264021
7.204569269,-0.451645285,9.00538826,-4.146761417
7.214594321,-1.572084427,8.761320114,-4.247260094
7.224619269,-3.032902718,7.904091358,-7.177271366
7.234645102,-4.191627026,10.60977554,-6.138188362
7.244670727,-4.229912281,10.53799057,-2.96889472
7.2546963,-2.563311338,9.00538826,-2.413161755
7.264721925,-0.542572558,9.407979965,-3.428316593
7.274747342,0.683150887,10.18804073,-4.419543266
7.284773071,0.170488611,10.27478027,-3.543172121
7.294798539,-1.093519926,10.06839943,-2.921038151
7.304824269,-2.175673962,9.977472305,-4.094119549
7.314849685,-2.544168711,10.06839943,-4.481756687
7.324874946,-2.309672117,9.953543663,-3.91166687
7.334900414,-1.615155339,9.719047546,-4.759324074
7.344926144,-0.681356251,9.723833084,-5.606981754
7.3549513,0.093918286,9.5754776,-5.463412285
7.364977237,0.424127817,9.403194427,-5.846263885
7.375003644,0.093918286,10.1401844,-6.080760479
7.385029477,-0.839880764,10.85384369,-5.190630436
7.395055362,-1.682154298,10.95912743,-3.979264021
7.405080935,-1.749153376,11.07398319,-2.916252613
7.415107133,-1.160519004,11.16969585,-2.964108944
7.425133592,-0.623928487,11.21276665,-2.849253654
7.435159998,-0.42771706,11.12662506,-2.954537868
7.445185831,-0.763310432,10.89212894,-3.595814228
7.455210727,-1.174875975,10.75813103,-3.725026608
7.465235675,-1.280160069,10.77727318,-3.643670797
7.475261092,-0.935593665,10.78205872,-3.557528973
7.485286248,-0.274576396,11.08355427,-3.562314749
7.495311196,0.482153773,12.7310133,-3.887738705
7.505336508,1.219143152,15.23031616,-6.171687603
7.515361352,1.884945989,16.2263279,-5.539982796
7.525386196,2.554936409,16.13540077,-4.390829563
7.535411092,3.675375462,15.97747517,-5.329414368
7.545436508,4.417748928,14.76132298,-2.791227579
7.555461612,4.676173687,13.32443333,-2.839682341
7.565485987,4.460819721,12.63529968,-5.012963295
7.575511039,4.451248169,11.91685486,-5.63090992
7.585535831,4.508676052,10.90170002,-4.304687977
7.595561248,3.632304668,10.71027374,-0.162711933
7.60558656,-0.466002196,12.00299644,2.484946251
7.615612081,-6.743572235,12.19442272,-1.5224334
7.625636873,-13.13599777,10.98784161,-4.941178799
7.635661717,-16.4781723,9.728618622,-7.608577728
7.645687029,-15.15135288,8.61296463,-7.584649563
7.655712029,-10.60738277,7.82273531,-3.950550079
7.665737706,-6.15433979,7.310671329,-3.275176048
7.675762446,-3.798605919,6.851249218,-2.944966555
7.685787185,-4.34476757,7.291528702,-0.478564531
7.695812185,-5.871986866,8.014759064,0.033499517
7.705836873,-6.858428001,8.321041107,-0.742373228
7.715861664,-7.26042223,7.875377655,-0.608375132
7.72588656,-7.529016495,6.683153629,-0.646660328
7.735911508,-8.007580757,5.726024628,-0.742373228
7.745937185,-8.055437088,5.433502197,-0.809372246
7.755963175,-7.605587006,5.443073273,-0.540777922
7.765989685,-6.867999077,5.490929604,-0.704088092
7.776016352,-6.230910301,5.663212776,-1.488933921
7.786043435,-6.341578007,5.730810165,-1.915454507
7.796069581,-7.959724426,5.88395071,-2.882753134
7.806095623,-10.21017456,6.367300987,-3.595814228
7.816121821,-12.44626713,6.707081795,-2.973680258
7.826146977,-13.9543438,6.520441532,-2.446661234
7.836172914,-14.04527092,5.88395071,-2.379662037
7.8461988,-12.54197979,4.95015192,-2.145165443
7.85622505,-10.23410225,4.274777889,-1.977667928
7.866250571,-8.127222061,4.064209461,-2.164308071
7.876276456,-6.226124287,3.882354736,-1.987239242
7.886302706,-4.593621254,3.474976778,-1.5224334
7.896328852,-3.382254839,3.096910715,-1.589432478
7.906355571,-2.668595552,3.116053343,-1.359721422
7.916381352,-2.67338109,3.45583415,-1.086939692
7.926406925,-3.190829039,3.609572887,-1.029511929
7.936433175,-4.076771736,3.537788391,-1.115653515
7.946459946,-4.895116806,3.60478735,-1.431506157
7.95648656,-5.551348686,3.815355778,-1.345364571
7.966512602,-6.125626087,4.040280819,-1.551147223
7.97653906,-6.595217228,4.356133461,-1.977667928
7.986565414,-6.705287457,4.864010334,-1.915454507
7.996591769,-6.595217228,5.534000397,-1.9585253
8.006618123,-6.74835825,6.171089649,-2.609373093
8.016644581,-7.198208809,6.458228111,-2.830111027
8.026670467,-7.820940971,6.525227547,-2.384447813
8.036696404,-8.270791054,6.644868374,-2.657229662
8.046722289,-8.074580193,6.812366009,-2.504088879
8.056748071,-7.749155998,7.128817081,-2.432304144
8.066774217,-7.801798344,7.597810268,-3.5766716
8.076800362,-7.993224144,8.177471161,-3.332603693
8.0868263,-8.333004951,8.498109818,-2.307877541
8.096852602,-8.745168686,8.225327492,-1.743171334
8.106877394,-7.56730175,13.23829174,-6.545566559
8.116902967,2.981456995,36.71008682,-11.20439243
8.126928071,8.008777618,34.70849228,-3.284747362
8.1369538,-1.529013634,9.250054359,-2.690729141
8.146979321,-0.336789787,-2.806781054,0.177068874
8.157004789,6.055635929,-7.389036179,5.626124382
8.167029998,8.161917686,-5.085944653,-4.419543266
8.177055206,8.209774017,8.340183258,-14.50828171
8.187080675,1.693520188,20.995224,-13.06720448
8.197105727,-10.942976,17.0548439,-2.484946251
8.207131092,-18.89133453,9.675976753,2.729014158
8.217157342,-17.75175285,6.147161484,0.363709033
8.227182394,-9.630513191,7.061817646,-0.795015335
8.237207185,-0.245862529,10.29870892,-0.51206404
8.247232029,4.077968121,11.66800117,-1.73360002
8.257256873,1.645663738,10.92562866,-2.638087034
8.267281925,-2.14696002,9.63290596,-0.545563579
8.277306508,-3.042474031,8.502895355,0.895513892
8.287331456,-1.529013634,8.69910717,-1.987239242
8.297356248,-0.595214605,9.580264091,-5.506483078
8.307381196,-2.046461582,9.905687332,-6.440282345
8.317406456,-4.306482315,9.63290596,-6.018547058
8.327431508,-5.24506712,9.154341698,-5.654838085
8.337456248,-4.316053867,9.00538826,-6.25842762
8.347480571,-2.592025042,9.235696793,-6.406782627
8.357505467,-0.95952189,9.259625435,-5.267200947
8.367530571,0.031704899,9.106484413,-5.348556995
8.377554581,0.376271367,9.067601204,-6.15733099
8.3875788,0.237487644,9.130413055,-5.640480995
8.397603019,-0.394217521,9.159127235,-4.587040901
8.407627498,-1.682154298,9.206983566,-4.031906128
8.417653019,-2.922234535,9.240483284,-3.998406649
8.427678592,-3.573680639,9.355338097,-3.528815269
8.437704737,-3.238685369,9.407979965,-3.466601849
8.447730935,-2.16131711,9.594620705,-3.744169235
8.457756352,-1.160519004,9.747760773,-3.586242914
8.467781769,-0.86380899,9.168698311,-3.4809587
8.477806769,-1.122233868,8.943174362,-4.14197588
8.487831977,-1.533799291,9.331410408,-4.199403763
8.497857654,-1.773081541,9.45583725,-4.405186653
8.507882654,-1.831107497,9.412766457,-4.582255363
8.517908071,-1.792224169,9.403194427,-4.55354166
8.527933383,-1.758724689,9.350552559,-4.740181446
8.537958904,-1.672582984,9.302696228,-4.491328239
8.547984269,-1.639083505,9.532406807,-4.074976921
8.558009373,-1.586441398,9.83868885,-3.984049797
8.568035154,-1.289731383,9.680762291,-3.916452408
8.578060883,-1.141376376,9.63290596,-4.223331928
8.588086248,-1.428515077,9.264410973,-4.419543266
8.598111769,-2.35274291,8.469395638,-6.5790658
8.608136248,-3.229114056,10.60020447,-5.00339222
8.618160519,-3.071187973,10.51884842,-3.442673683
8.628184998,-1.917249203,9.522835732,-3.437887907
8.638209373,-0.715453982,9.862616539,-3.06460762
8.648234164,-0.336789787,9.738189697,-3.777668715
8.658259008,-1.270588875,9.728618622,-3.681955814
8.668284425,-2.582453728,9.948758125,-3.93140769
8.678309737,-3.396611691,9.996614456,-4.481756687
8.68833505,-3.343969584,9.987043381,-3.830310822
8.698360467,-2.635095835,9.93918705,-4.031906128
8.708385467,-1.591227055,9.991828918,-4.261617184
8.718410727,-0.623928487,10.16889763,-4.424329281
8.728435727,-0.097507522,10.3848505,-4.620540619
8.738461248,0.007776673,10.47099209,-4.563112736
8.748485675,-0.269790739,10.52363396,-4.850251675
8.758511456,-0.547358155,10.66241741,-4.697110653
8.76853755,-0.552143812,10.57627583,-4.199403763
8.778563279,-0.025722843,10.4279213,-3.882952929
8.788588956,0.707079113,10.45663452,-3.964907169
8.79861406,1.161715388,10.65284634,-3.863810301
8.808639217,1.247856975,11.32283688,-3.777668715
8.818664842,1.247856975,13.05643654,-4.764110088
8.828690519,1.353141189,14.90967751,-6.813562393
8.838716248,1.506281853,15.10110378,-5.372485161
8.848741873,1.266999602,14.07159138,-4.85982275
8.858767914,0.788435042,13.34836102,-4.572684288
8.86879406,0.132203445,13.02293682,-2.954537868
8.878821039,-0.293718994,13.24786282,-1.977667928
8.888847394,-0.107078813,13.20957756,-1.345364571
8.898874112,0.620937467,12.6687994,-2.523231506
8.908900154,2.004587173,12.02692509,-4.414757729
8.9189263,4.121038914,10.73420238,-4.869394302
8.928952133,5.126622677,9.379266739,-5.372485161
8.938977914,4.336392879,8.632107735,-3.782454491
8.949003956,2.071586132,8.780462265,-0.732801914
8.959029217,-1.323230863,9.206983566,-0.838086128
8.969054581,-5.881557941,8.852247238,-1.661217093
8.979080414,-10.78445148,8.373682976,-3.227319479
8.989107029,-14.40000629,8.325826645,-7.205985546
8.999133539,-15.18963814,8.321041107,-8.930013657
9.009160727,-12.25962639,7.640881062,-6.56470871
9.01918755,-6.901498795,6.467799664,-3.643670797
9.029214477,-1.739582062,5.428716183,-2.796013355
9.039241039,0.764506817,4.911866665,-2.336591244
9.049267758,-0.485144794,4.811367989,-2.025524378
9.059293539,-3.061616659,4.931009293,-2.255235434
9.069319164,-5.00040102,5.218147755,-2.312663078
9.079344685,-5.876772404,5.557928562,-2.647658348
9.089370258,-5.603990555,5.471786976,-3.327818155
9.099396664,-4.842474937,4.931009293,-3.5766716
9.109422758,-4.464408875,4.475774765,-3.672384501
9.119449008,-4.493122578,4.265206337,-3.691527128
9.129475467,-4.459623337,4.399204254,-2.781656265
9.139500987,-4.115056515,4.93579483,-2.082952023
9.149527394,-3.803391695,5.893522263,-2.427518606
9.159553956,-4.100699902,6.534798622,-2.96889472
9.169580935,-5.441278458,6.549155712,-3.394817114
9.179607862,-7.193423271,6.889534473,-3.667598963
9.189633748,-9.056235313,7.69352293,-4.098905087
9.19965906,-10.10488987,8.392825127,-4.185046673
9.209684737,-9.568299294,8.531609535,-3.476173162
9.219710779,-7.533802032,8.383254051,-2.901895761
9.22973656,-4.919044971,8.531609535,-2.973680258
9.239762446,-2.644667149,8.842676163,-3.638885021
9.249788539,-1.275374413,9.154341698,-4.409972191
9.259814164,-1.24666059,9.795618057,-4.630111694
9.26984031,-3.209971666,11.00698376,-4.663611412
9.279866039,-6.757929325,12.31406307,-5.070989609
9.289891768,-10.50209904,12.59701443,-5.544768333
9.299917393,-12.5180521,11.64885902,-5.219344616
9.309941976,-11.79960632,10.59063339,-4.232903481
9.319967758,-9.137591362,10.06839943,-3.227319479
9.329993122,-6.072983742,10.08275604,-2.432304144
9.340017758,-3.870390654,9.805189133,-2.959323406
9.350043643,-2.730808735,9.527621269,-3.974478483
9.360069164,-2.419741869,10.00618649,-4.735395908
9.370094372,-2.170888424,10.37527943,-5.429912567
9.380119685,-1.864607096,10.01097202,-4.634897232
9.390145049,-2.036890268,9.374481201,-3.390031576
9.400171091,-2.826521635,9.072386742,-2.595016241
9.410196039,-3.583251953,8.727820396,-2.34137702
9.42022182,-3.674179077,8.3641119,-2.264806747
9.430247653,-3.21954298,8.545966148,-1.78145647
9.44027333,-2.137388945,12.19442272,-4.735395908
9.450299268,3.096312523,25.07498741,-8.321639061
9.460324633,10.82931709,24.39482689,10.14138031
9.470350205,7.477570534,10.18804073,14.7140646
9.48037557,3.000599623,4.749154568,8.206783295
9.49040182,2.181656122,8.187042236,-0.066999033
9.500428174,-3.214757204,10.69591713,-6.703492641
9.510454789,-10.75095177,8.708678246,-3.892524242
9.520481455,-15.61615849,8.498109818,-4.266402721
9.530508695,-15.77887058,9.345767021,-4.228117466
9.54053557,-11.17747307,9.235696793,-3.538386583
9.550562758,-4.603192329,9.73340416,-5.539982796
9.560589372,1.712662816,10.79641533,-6.119045734
9.570616351,5.791827202,10.40399265,-3.528815269
9.580643278,6.601199627,9.053244591,-1.853241086
9.590670258,5.662614822,8.751749039,-3.557528973
9.600696768,3.570091486,9.776474953,-4.127619267
9.610722497,0.381056994,9.996614456,-2.935395241
9.620747862,-2.773879766,9.32662487,-3.198605776
9.63077307,-4.402195454,9.062815666,-4.14197588
9.640797862,-4.086342812,9.518050194,-4.711467743
9.650823122,-2.57766819,9.996614456,-5.224130154
9.660848435,-0.988235772,9.996614456,-5.329414368
9.670873278,-0.073579296,9.862616539,-4.888536453
9.680898643,-0.250648171,9.920044899,-3.792025566
9.690923226,-1.112662554,10.06361389,-2.499303341
9.700947705,-2.056032896,10.19282627,-2.255235434
9.710972497,-2.721237659,10.31785107,-2.394019127
9.720997653,-2.903092146,10.33699417,-2.269592285
9.731022289,-2.438884497,10.15454102,-2.690729141
9.741046508,-1.552941918,9.972686768,-3.457030535
9.751070674,-0.623928487,9.738189697,-3.279961586
9.761095518,0.203988135,9.532406807,-3.299104214
9.771119685,0.716650367,9.474979401,-3.796811342
9.781143903,0.678365231,9.0921278,-3.763311863
9.791167601,-0.274576396,7.976474285,-4.993820667
9.801191872,-1.304088354,9.60419178,-5.927619934
9.811216403,-1.701296926,10.46620655,-2.427518606
9.821241247,-0.744167864,8.914461136,-1.867598057
9.83126583,0.673579574,9.062815666,-3.040679455
9.841291091,1.161715388,9.786046028,-4.017549038
9.851316351,0.194416836,9.623334885,-4.161118507
9.861341612,-1.308874011,9.666405678,-3.361317635
9.871366664,-2.548954248,9.924830437,-3.007179976
9.881391508,-3.329612732,10.15932655,-3.265604734
9.891415778,-3.458825111,10.13539886,-2.791227579
9.901440518,-2.869592667,10.01097202,-2.638087034
9.911465883,-2.017747641,9.972686768,-3.294318676
9.921491247,-1.313659668,9.915258408,-3.753740549
9.931516612,-1.227517962,9.896116257,-3.68674159
9.941541612,-1.509871125,9.833903313,-3.89730978
9.951566768,-1.567298889,9.752547264,-3.787240028
9.961592028,-1.529013634,9.752547264,-3.232105255
9.971616976,-1.500299811,9.872187614,-2.887538671
9.98164156,-1.562513232,10.04447079,-2.642872572
9.991665726,-1.615155339,10.32742214,-2.685943365
10.00169094,-1.758724689,10.48056316,-2.916252613
10.01171547,-1.80658114,10.38006496,-2.791227579
10.02174047,-1.643869162,10.21735287,-2.949752092
10.03176552,-1.47158587,10.01097202,-3.0981071
10.04179099,-1.409372568,9.766903877,-2.921038151
10.05181703,-1.351944804,9.623334885,-3.031108141
10.0618426,-1.318445325,9.79083252,-3.370888948
10.07186776,-1.366301775,10.19282627,-3.729812384
10.08189302,-1.457229018,10.94477081,-4.065405846
10.09191849,-1.332802176,12.09392357,-4.792823792
10.10194422,-0.993021369,12.74058437,-5.29591465
10.11196989,-0.547358155,12.53001595,-4.649254322
10.12199521,0.208773777,12.51087284,-4.649254322
10.13202104,1.176072359,13.20957756,-4.409972191
10.14204677,1.660020709,13.61695576,-3.782454491
10.15207265,1.47756803,13.16172123,-3.471387386
10.16209828,1.372283816,12.57308674,-3.461816072
10.17212349,2.373081923,12.06999588,-3.634099483
10.18214885,3.891327858,11.56750298,-4.003192425
10.19217396,4.661816597,10.75334454,-4.534399033
10.2021987,4.637888432,9.747760773,-5.061418056
10.21222396,3.953541279,8.880961418,-5.00339222
10.22224916,2.842673302,8.388039589,-5.606981754
10.23227437,1.660020709,8.225327492,-6.066403389
10.24229896,0.314057976,8.445467949,-4.237689018
10.25232427,-1.941177368,9.149555206,-1.101296663
10.26234995,-5.685346603,9.407979965,-0.196211457
10.27237515,-9.932606697,9.202198029,-4.429114819
10.28240099,-13.67199039,9.728618622,-8.27378273
10.29242677,-14.79242992,10.57627583,-7.354938507
10.30245203,-11.19182968,9.886545181,-4.065405846
10.31247677,-4.871188641,8.234899521,-2.456232548
10.32250166,0.482153773,6.587440968,-2.078166485
10.33252666,2.18644166,5.60578537,-3.093321562
10.34255135,1.180858016,5.519643784,-4.400400639
10.35257594,-0.681356251,5.927021503,-4.811966419
10.36260062,-2.726023197,6.333801746,-4.850251675
10.37262526,-4.847260475,6.654439926,-5.587839127
10.38264979,-6.580860615,6.918248653,-6.531209469
10.39267505,-7.706085205,6.961319447,-6.502495766
10.40269984,-8.419146538,6.86082077,-6.066403389
10.41272515,-8.471788406,6.711867332,-5.784050465
10.4227501,-7.739584923,6.563512325,-4.811966419
10.43277458,-6.628716946,6.42472887,-3.681955814
10.44279927,-6.077769279,6.386443615,-3.974478483
10.45282432,-6.446862221,6.620940208,-5.482554913
10.46284875,-7.088139057,6.970890522,-6.354140759
10.47287338,-7.533802032,6.937391281,-6.334998131
10.48289828,-7.677371502,6.769295216,-5.874977589
10.49292307,-7.495516777,6.908677101,-5.012963295
10.50294797,-7.207779884,7.339385033,-4.314259052
10.5129726,-6.705287457,7.650452137,-4.429114819
10.52299682,-5.862415314,7.841877937,-4.673182487
10.53302104,-4.890331268,8.311469078,-4.630111694
10.54304583,-4.162913322,8.928817749,-4.740181446
10.55307021,-4.028316975,9.235696793,-4.960321426
10.56309484,-4.560121536,9.350552559,-4.97467804
10.57311911,-5.819344521,9.441479683,-5.602196217
10.58314448,-6.810571671,10.1210413,-6.325426579
10.59316937,-8.318648338,11.36172009,-5.147559643
10.60319463,-10.48295593,11.95992565,-4.740181446
10.61321958,-12.32184029,11.54835987,-5.415555954
10.62324484,-12.47498131,10.73898792,-5.831906796
10.63326958,-10.33938694,9.96790123,-4.66839695
10.64329416,-6.681358814,9.460622787,-3.2895329
10.65331885,-2.91266346,9.264410973,-2.916252613
10.66334427,-0.288933337,9.293125153,-3.078964472
10.67336953,-0.016151553,9.786046028,-3.710669756
10.68339521,-1.960319996,10.04925728,-4.917250633
10.69342073,-4.306482315,9.876974106,-4.118047714
10.70344573,-5.575276852,9.288339615,-2.068595171
10.7134712,-5.996413708,8.766105652,-0.699302435
10.72349614,-5.97727108,8.167900085,-0.900299549
10.7335213,-5.647061348,8.000402451,-0.411565483
10.74354646,-5.45085001,8.038687706,-0.033499517
10.75357151,-5.096114159,8.258827209,-0.737587571
10.76359713,-3.894318819,12.43370438,-4.462614059
10.77362349,2.215155602,28.66601563,-10.4668045
10.78364901,14.62134266,27.59343338,6.177071571
10.79367453,12.18903828,8.67039299,16.04028702
10.80369984,5.040481091,2.761915445,4.386044025
10.81372505,1.870589137,7.248457909,-4.414757729
10.82374958,-3.032902718,11.26062298,-7.814360619
10.83377489,-9.367302895,9.857831001,-2.681157827
10.84380031,-13.44227982,8.866603851,-3.696312666
10.85382567,-12.57547951,8.9479599,-5.717051506
10.86385057,-7.926225185,9.446265221,-4.395615101
10.87387536,-3.736392498,9.388837814,-4.965106964
10.88390005,-1.667797327,9.317052841,-5.851049423
10.89392469,-0.226719946,10.08754253,-4.443471432
10.90394896,2.449652195,10.29392338,-1.120439172
10.9139739,5.849255085,9.819545746,-0.138783708
10.92399854,6.749554634,9.331410408,-2.303091764
10.93402338,4.154538155,8.971888542,-4.314259052
10.94404838,0.261415869,9.034101486,-4.472185612
10.95407333,-3.157329559,9.226125717,-4.467400074
10.96409786,-5.158327579,9.403194427,-4.807180882
10.97412245,-5.211567879,9.690333366,-5.11884594
10.98414734,-3.750749588,9.766903877,-5.022534847
10.99417219,-1.816152334,9.699904442,-4.979464054
11.00419729,-0.212363005,9.695118904,-4.615755081
11.01422229,0.56829536,9.776474953,-3.729812384
11.02424661,0.256630242,9.829116821,-3.691527128
11.03427057,-0.792024314,9.872187614,-3.725026608
11.04429453,-1.850250125,9.881759644,-3.189034462
11.05431932,-2.280958176,9.671191216,-2.992822886
11.06434396,-1.955534339,9.460622787,-3.380460262
11.07436854,-1.241874933,9.479764938,-3.887738705
11.08439291,-0.556929469,9.518050194,-3.748954773
11.09441724,0.069990061,9.594620705,-3.758526087
11.10444156,0.510867655,9.671191216,-3.988835335
11.11446625,0.659222662,9.637691498,-3.796811342
11.12449088,0.376271367,9.541978836,-3.906881094
11.13451541,-0.174077854,9.465408325,-4.122833252
11.14453963,-0.585643351,9.422337532,-3.80159688
11.15456437,-0.782453001,9.42712307,-3.753740549
11.16458922,-0.715453982,9.498908043,-3.595814228
11.17461432,-0.351146728,9.565906525,-3.471387386
11.18463953,0.093918286,9.589835167,-3.524029493
11.19466396,0.294915378,9.699904442,-3.653241873
11.20468859,-0.073579296,9.929615974,-4.146761417
11.21471338,-1.222732425,10.17368412,-4.084548473
11.22473854,-2.438884497,10.21735287,-3.562314749
11.2347638,-3.080759048,9.996614456,-3.351746321
11.24478932,-3.549752474,8.325826645,-5.784050465
11.25481432,-3.592823267,10.82512951,-6.837490559
11.26483979,-2.572882652,11.40957642,-2.700300455
11.27486484,-0.049651071,9.393623352,-3.021536827
11.28489015,1.803590059,9.805189133,-3.476173162
11.29491515,1.894517303,10.47099209,-4.577469826
11.30494036,0.43908295,10.21735287,-3.70588398
11.31496578,-0.849452019,10.13539886,-2.839682341
11.32499073,-1.418943882,10.05882835,-3.447459221
11.33501536,-1.261017561,9.786046028,-4.04147768
11.34504026,-0.945164919,9.642477036,-3.91166687
11.35506479,-0.978664458,9.896116257,-3.830310822
11.36508896,-1.19880414,9.876974106,-3.72024107
11.37511317,-1.299302697,9.752547264,-3.59102869
11.38513739,-1.227517962,9.972686768,-3.466601849
11.39516187,-0.945164919,10.56670475,-2.868396044
11.40518609,-0.418145746,11.21276665,-2.666800737
11.4152112,0.27577281,13.1138649,-3.471387386
11.42523521,0.965503931,15.31645775,-5.468197823
11.43526057,1.664806366,15.57009697,-3.748954773
11.44528521,2.018944025,14.94317722,-2.729014158
11.45531036,2.440080881,14.90967751,-3.964907169
11.46533489,3.785445452,14.67458344,-2.561516523
11.47535932,6.285346985,14.05723476,-3.19382
11.48538422,8.665008545,13.92323685,-4.869394302
11.49540838,9.603593826,13.78445339,-6.229713917
11.50543323,8.755936623,13.20957756,-7.785646915
11.51545812,6.945765972,11.97906876,-8.470592499
11.52548286,4.905884743,10.21196842,-7.215556622
11.53550708,2.430509567,8.780462265,-4.453042984
11.54553177,-1.050449133,8.742177963,-3.260818958
11.55555583,-5.96291399,9.336195946,-3.643670797
11.56558166,-11.76132107,9.302696228,-8.326424599
11.57560677,-15.7501564,9.235696793,-12.22433281
11.58563229,-17.08595085,8.61296463,-9.825528145
11.59565729,-15.12742519,6.966104984,-4.969892502
11.60568219,-12.25005531,5.903093338,-3.279961586
11.61570692,-9.620942116,5.764309883,-3.667598963
11.62573166,-7.006783009,5.342574596,-3.696312666
11.63575672,-4.641477585,4.188635826,-3.356531858
11.64578265,-3.071187973,3.159124136,-3.251247883
11.65580771,-2.309672117,2.843271494,-3.203391314
11.6658337,-2.314457655,3.087339401,-2.805584431
11.67585916,-3.099901676,3.278765202,-2.844467878
11.68588505,-4.416552544,3.163909674,-3.189034462
11.69591099,-5.522634506,3.144767046,-3.461816072
11.70593625,-5.694917679,3.321835995,-3.3852458
11.71596166,-4.923830986,3.59043026,-2.719442844
11.72598656,-3.980460405,4.078566074,-1.881955028
11.73601187,-3.736392498,4.974080086,-1.925025821
11.74603745,-4.631906509,5.726024628,-2.24566412
11.75606317,-6.614359856,5.821737289,-2.868396044
11.76608864,-8.505288124,5.821737289,-3.390031576
11.77611396,-9.405587196,6.04187727,-3.021536827
11.78613942,-8.730812073,6.242874146,-2.298306227
11.796165,-7.021139622,6.56829834,-1.901097536
11.80619015,-5.216353416,7.157530785,-2.073380709
11.81621552,-3.836891174,7.674380302,-2.978466034
11.82624146,-2.917448997,8.172685623,-4.046263218
11.83626672,-2.587239504,8.837890625,-4.620540619
11.84629182,-3.382254839,9.80997467,-4.821537495
11.85631672,-5.541777134,10.87298584,-5.008177757
11.86634255,-8.495717049,11.32283688,-5.176273346
11.87636823,-11.27797127,11.23190975,-5.410770416
11.88639354,-12.42233849,10.80598736,-5.10448885
11.89641974,-11.12004471,10.59063339,-4.185046673
11.90644635,-8.021938324,10.61934662,-3.562314749
11.91647328,-4.765904427,10.33220863,-3.984049797
11.92649963,-2.630310297,10.30349445,-4.567898273
11.93652594,-1.591227055,10.48056316,-4.094119549
11.94655213,-1.634297848,10.90648556,-3.232105255
11.95657833,-2.118246317,11.48136139,-3.662813187
11.96660453,-1.859821439,11.68714428,-4.089334011
11.97663047,-0.676570594,11.67757225,-2.897109985
11.9866564,0.63050878,11.32283688,-1.230509043
11.99668239,1.314856052,10.7677021,-0.613160789
12.00670734,1.152144074,9.982257843,-0.972084224
12.01673255,-0.212363005,9.355338097,-1.364507079
12.02675781,-2.213959217,9.522835732,-1.996810555
12.03678265,-3.592823267,11.61535931,-3.811168194
12.04680854,-2.108675003,17.7200489,-7.613363266
12.05683432,6.787839413,20.77508354,-2.542374134
12.06686021,14.3629179,13.55414391,6.856633186
12.07688604,9.627521515,6.161518097,-1.512862086
12.08691234,2.746960402,5.917450428,-12.68375492
12.09693797,-5.096114159,8.679964066,-6.478567123
12.10696323,-10.942976,9.278767586,1.948953986
12.11698911,-12.38883877,9.699904442,1.039083242
12.12701458,-9.166305542,10.66241741,-1.8628124
12.13704026,-3.71724987,10.53799057,-1.307079315
12.14706666,-0.552143812,9.417551994,-0.96251291
12.15709203,-0.370289296,8.962317467,-1.541576028
12.16711786,-0.997807026,9.561120987,-3.945764542
12.17714406,-0.226719946,10.06839943,-4.14197588
12.18716974,2.023729801,10.03489971,-1.982453585
12.19719531,3.211168051,9.556335449,-2.317448616
12.20722036,1.789233088,8.928817749,-4.453042984
12.21724614,-0.801595569,8.857032776,-5.353342533
12.22727192,-2.687737942,9.178269386,-4.826323509
12.23729713,-2.874378204,9.379266739,-4.677968502
12.24732307,-1.763510346,9.518050194,-5.11884594
12.25734864,-0.710668325,9.580264091,-5.377270699
12.26737396,-0.556929469,9.599406242,-4.797609329
12.27739901,-0.973878801,9.628120422,-3.806382656
12.28742406,-1.485942841,9.728618622,-3.375674486
12.29744922,-1.811366796,9.862616539,-3.418745279
12.30747489,-1.926820397,9.814760208,-3.141177893
12.31750026,-1.869392633,9.63290596,-2.748156786
12.32752536,-1.605584025,9.585049629,-2.997608662
12.33754995,-1.29451704,9.63290596,-3.490530014
12.34757484,-1.021735311,9.60419178,-3.533600807
12.35759979,-0.906879783,9.618548393,-3.256033421
12.36762536,-0.782453001,9.570692062,-2.983251572
12.37765036,-0.470787853,9.441479683,-2.959323406
12.38767567,0.026919255,9.355338097,-3.19382
12.39770067,0.400199592,9.317052841,-3.380460262
12.40772573,0.558724105,9.360123634,-3.629313707
12.41775099,0.357128769,9.431908607,-3.519243956
12.42777609,-0.116650105,9.508479118,-3.409173965
12.43780099,-0.628714144,9.5754776,-3.681955814
12.44782552,-1.146162033,9.5754776,-3.739383698
12.4578501,-1.572084427,9.637691498,-3.466601849
12.46787489,-1.907677889,9.747760773,-3.80159688
12.47789969,-2.075175524,9.709476471,-3.600599766
12.48792458,-2.204387903,9.766903877,-3.078964472
12.49794989,-2.266601324,9.93918705,-3.318246841
12.50797469,-2.194816589,10.03489971,-3.600599766
12.51800094,-1.845464468,9.982257843,-3.768097401
12.52802666,-1.950748682,9.034101486,-5.626124382
12.53805255,-2.625524759,10.45663452,-6.004190445
12.54807854,-2.927020311,10.91605663,-2.830111027
12.55810406,-1.989033818,9.848259926,-3.0981071
12.56812906,-0.504287362,10.53799057,-3.236890793
12.57815427,0.61615181,10.8107729,-3.753740549
12.58817885,0.63050878,10.30827999,-4.280759811
12.5982039,0.036490545,10.23170948,-3.926023722
12.6082287,-0.696311414,10.36092186,-4.36211586
12.61825312,-1.265803218,10.28435135,-4.457828522
12.62827833,-1.447657704,10.40399265,-3.926023722
12.6383039,-0.997807026,10.48056316,-3.691527128
12.64832974,-0.025722843,10.49013424,-3.260818958
12.65835453,0.970289588,10.5858469,-2.96889472
12.66837969,1.42971158,10.96869946,-3.337389469
12.67840526,1.147358418,12.08435249,-3.72024107
12.68843036,0.601794899,13.32443333,-4.984249592
12.69845604,0.261415869,13.62174129,-4.960321426
12.70848094,0.352343142,13.60259819,-3.988835335
12.71850661,1.037288666,14.05244923,-5.329414368
12.72853161,1.367498159,13.90888023,-4.610969067
12.73855646,0.95114702,12.53958702,-2.978466034
12.74858177,0.443868607,11.8785696,-4.342973232
12.75860661,0.203988135,12.37627697,-5.012963295
12.76863172,0.936790049,12.2614212,-5.128417015
12.77865677,2.42572403,11.31805134,-5.865406513
12.78868172,3.316452265,10.32742214,-6.363711834
12.79870708,3.168097258,9.518050194,-5.319842815
12.80873219,1.870589137,8.713463783,-2.705085993
12.81875677,-0.964307547,8.187042236,0.330209523
12.82878234,-5.388636589,8.69910717,0.613160789
12.83880739,-9.37687397,8.474181175,-3.045464993
12.84883213,-11.14875889,8.656036377,-5.9515481
12.85885719,-10.19581699,8.4646101,-5.994618893
12.8688826,-6.686144829,7.128817081,-5.382056236
12.87890786,-3.789034605,5.816951752,-2.868396044
12.88893317,-3.63589406,5.395216942,-1.340578914
12.89895859,-4.670191765,5.730810165,-1.292722464
12.90898432,-5.177470207,5.586642742,-1.144367456
12.91900984,-5.033900738,4.768297195,-1.18743825
12.92903495,-4.8376894,4.241278172,-1.68574357
12.9390601,-5.091328144,4.48534584,-2.255235434
12.94908536,-5.647061348,4.974080086,-2.331805706
12.95911021,-6.336792469,5.0793643,-2.030309916
12.969135,-6.738786697,4.983651161,-1.695314884
12.97916015,-6.470790863,4.859224796,-1.05822587
12.98918541,-5.637490273,4.907081127,-0.41635114
12.99921088,-4.875974178,5.203791142,-0.220139682
13.00923625,-4.751547337,5.769095421,-0.804586589
13.0192612,-5.240281582,6.319444656,-1.445863128
13.02928651,-6.068198204,6.711867332,-1.896311998
13.03931172,-6.676573277,7.023532867,-1.858026743
13.04933745,-6.695715904,7.272386074,-1.220937729
13.05936333,-6.302694798,7.51645422,-0.77108711
13.06938812,-5.699703693,7.72223711,-0.938584685
13.07941359,-4.871188641,7.976474285,-1.2352947
13.08943911,-3.985246181,8.340183258,-1.460219979
13.09946489,-3.473181963,8.723034859,-1.503290772
13.10948979,-3.817748547,9.154341698,-1.398006678
13.11951489,-4.928616524,9.771689415,-1.584646821
13.12953979,-6.15433979,10.42313576,-1.891526341
13.13956401,-6.729215622,10.8682003,-2.106880426
13.14958932,-6.346364021,11.17448139,-2.250449657
13.15961396,-5.30728054,11.16491032,-2.121237278
13.16963864,-4.095914364,10.98305607,-1.929811478
13.1796639,-3.080759048,11.07398319,-1.589432478
13.18968911,-2.711666346,11.51007557,-1.15393877
13.19971453,-3.004188776,12.11306667,-1.680359721
13.20974015,-3.166900873,12.2039938,-2.815753937
13.21976562,-2.778665304,11.62971592,-3.323032379
13.22979015,-2.008176327,11.1314106,-2.791227579
13.23981448,-1.682154298,10.56670475,-2.379662037
13.24983963,-1.758724689,9.943972588,-2.810968399
13.25986458,-1.548156261,9.728618622,-4.02712059
13.26988969,-0.782453001,9.829116821,-4.577469826
13.27991531,-0.351146728,9.628120422,-4.33340168
13.28994057,-0.940379322,9.192625999,-3.830310822
13.29996578,-2.060818434,9.053244591,-3.299104214
13.30999021,-2.980260611,9.307481766,-3.107678413
13.32001526,-3.147758245,11.46221828,-3.844667673
13.33004057,-1.686939955,16.87239075,-5.80797863
13.34006547,4.920839787,19.18026733,-4.304687977
13.35009057,12.15075302,14.5070858,1.115653515
13.36011536,10.9489584,8.244470596,3.308675528
13.37013989,3.364308596,7.339385033,-3.873381615
13.38016479,-5.33599472,8.713463783,-4.548755646
13.39019021,-11.87617683,9.824331284,0.478564531
13.40021588,-13.29870987,10.45184898,0.852443039
13.4102412,-9.69811058,10.18804073,-1.465005636
13.42026703,-3.382254839,9.42712307,-0.584446907
13.43029328,1.717448473,8.598608017,-1.278365493
13.44031833,3.048455954,8.459824562,-6.626922131
13.4503437,0.984646499,9.283554077,-11.62552929
13.46036916,-1.960319996,10.01097202,-8.762516975
13.47039463,-2.654238462,9.963115692,-1.565504193
13.48041984,-0.993021369,9.484550476,0.535992265
13.49044469,0.687936485,8.991030693,-2.642872572
13.50046974,1.276570916,8.900103569,-4.993820667
13.51049416,1.113858938,9.010173798,-5.01774931
13.52051859,0.788435042,9.422337532,-4.85982275
13.53054317,0.223130718,9.623334885,-5.224130154
13.54056828,-0.758524776,9.417551994,-5.477769375
13.55059307,-1.725225091,9.436694145,-5.085346222
13.56061854,-2.079961061,9.642477036,-4.266402721
13.5706439,-1.552941918,9.699904442,-4.051048756
13.58066922,-0.652642369,9.680762291,-4.792823792
13.59069427,0.084346995,9.795618057,-4.883750916
13.60071958,0.366700083,9.800403595,-4.007977962
13.61074469,0.036490545,9.628120422,-3.672384501
13.62076979,-0.537786901,9.652048111,-3.878167391
13.63079515,-0.815952539,9.776474953,-3.567100286
13.64082083,-0.705882668,9.709476471,-3.418745279
13.6508462,-0.37986058,9.613762856,-3.658027649
13.66087166,0.017347964,9.5754776,-3.672384501
13.67089573,0.309272319,9.479764938,-3.820739508
13.68092099,0.361914426,9.374481201,-3.696312666
13.69094672,0.007776673,9.369695663,-3.557528973
13.70097255,-0.690927565,9.441479683,-3.68674159
13.71099802,-1.447657704,9.393623352,-3.413959742
13.72102354,-2.017747641,9.226125717,-3.236890793
13.73104875,-2.740380049,8.459824562,-4.644468784
13.74107364,-3.233899832,10.20718288,-5.396413326
13.75109937,-2.907877684,10.61456108,-2.51844573
13.76112437,-1.744367719,9.254839897,-2.317448616
13.77114885,-0.556929469,9.532406807,-3.035893679
13.78117401,-0.18843478,10.10189915,-3.921238184
13.79119958,-0.811166883,9.920044899,-4.165904045
13.80122489,-1.32801652,9.853045464,-3.524029493
13.81125026,-1.361516118,9.738189697,-3.471387386
13.82127521,-1.112662554,9.565906525,-4.185046673
13.83130047,-0.777667344,9.599406242,-4.15633297
13.84132604,-0.595214605,9.719047546,-4.003192425
13.85135187,-0.509073019,9.943972588,-4.505684853
13.86137734,-0.513858676,10.13539886,-4.400400639
13.87140213,-0.676570594,10.16889763,-3.748954773
13.88142776,-0.849452019,10.27956581,-3.547957659
13.89145302,-0.926022351,10.37049294,-3.447459221
13.90147859,-0.978664458,10.47577763,-3.212962627
13.91150453,-1.040877819,10.27956581,-2.911466837
13.92153005,-1.122233868,10.10668468,-2.997608662
13.93155547,-1.079162955,10.37527943,-2.264806747
13.94158,-0.806381226,10.44706345,-2.499303341
13.95160448,-0.480359137,10.85862923,-3.035893679
13.96162906,-0.198006079,12.13699436,-4.232903481
13.97165344,-0.33200413,13.26700497,-5.731408596
13.98167849,-0.95952189,13.48235893,-5.324628353
13.99170344,-1.452443361,13.31007576,-4.706682205
14.00172932,-1.337587833,13.53021526,-4.936393261
14.01175448,-0.86380899,14.04287815,-4.66839695
14.02177948,-0.174077854,14.27737427,-3.960121393
14.03180536,1.04685986,13.97109318,-3.562314749
14.04183036,2.90967226,13.1521492,-4.14197588
14.05185614,4.661816597,12.35713387,-5.300700188
14.0618812,5.370690346,11.80678558,-6.507281303
14.07190661,5.011766911,11.07876873,-6.401997089
14.08193198,4.231108665,9.757332802,-5.128417015
14.09195724,3.297309637,8.349754333,-5.00339222
14.10198297,2.014158487,7.540382385,-3.562314749
14.11200833,-0.212363005,7.492526054,-0.430708081
14.12203349,-3.698107481,8.215756416,0.071784683
14.13205916,-8.05065155,8.780462265,-4.567898273
14.14208411,-12.64247799,8.842676163,-8.786444664
14.15210948,-15.05564022,8.9479599,-10.45723343
14.16213474,-13.42792225,8.072187424,-7.374081135
14.17215969,-8.759525299,6.434299946,-3.227319479
14.18218526,-4.387838364,5.553143024,-2.776870728
14.19221005,-2.233101845,5.356931686,-3.165106058
14.20223531,-2.869592667,5.342574596,-3.246462107
14.21226151,-4.885545731,5.38564539,-4.304687977
14.22228687,-6.580860615,5.596213818,-5.391627789
14.2323126,-7.356134892,5.797809124,-5.181059361
14.24233807,-7.418348312,5.524429321,-4.529613495
14.25236354,-7.289135933,5.012365341,-4.835894585
14.26238854,-7.217351437,4.75872612,-4.658825874
14.27241271,-7.217351437,4.816154003,-3.89730978
14.2824376,-7.135995388,5.213362217,-4.137190342
14.29246245,-6.638288021,5.8983078,-4.606183529
14.30248729,-5.670989513,6.34815836,-4.199403763
14.31251265,-4.962115765,6.319444656,-4.036691666
14.32253661,-5.268995285,6.266802311,-4.831109047
14.33256078,-6.451648235,6.290730953,-5.271986485
14.34258573,-7.87358284,6.295516491,-5.142774105
14.35261094,-8.577671051,6.285944939,-4.730610371
14.36263541,-7.988438606,6.281159401,-3.940979004
14.37265974,-6.365506649,6.271588326,-3.413959742
14.38268479,-4.603192329,6.23330307,-3.849453449
14.39270974,-3.387040377,6.482156754,-4.472185612
14.40273463,-3.190829039,7.133602619,-4.788038254
14.41276015,-4.057030678,7.889734268,-5.248058319
14.42278547,-5.283352375,8.239685059,-5.654838085
14.43281062,-6.403791428,8.373682976,-5.549553871
14.4428363,-7.384849072,8.574680328,-5.367699623
14.45286172,-8.151150703,8.579465866,-5.243272781
14.46288692,-8.67816925,8.397610664,-5.046463013
14.47291198,-8.970093727,8.378468513,-4.687539577
14.48293703,-8.922237396,8.679964066,-4.677968502
14.49296307,-8.280363083,9.106484413,-5.046463013
14.50298781,-7.064210415,9.374481201,-4.864608288
14.51301312,-5.45085001,9.42712307,-4.065405846
14.5230376,-3.961317778,9.709476471,-3.050250769
14.53306234,-3.01376009,10.07318497,-3.251247883
14.54308692,-2.587239504,10.34177971,-3.595814228
14.55311172,-2.649452925,10.60499001,-3.260818958
14.56313682,-2.931805849,10.68156052,-3.39960289
14.5731613,-2.659024239,10.62413216,-3.4809587
14.58318614,-1.931606054,10.47099209,-2.858824968
14.59321156,-1.155733347,10.1832552,-2.336591244
14.60323698,-0.647856712,9.843474388,-2.24566412
14.61326229,-0.461216569,9.561120987,-2.427518606
14.62328719,-0.686141908,9.556335449,-1.920240164
14.63331234,-1.256231904,9.541978836,-2.312663078
14.64333745,-1.619940877,9.5754776,-3.294318676
14.65336208,-1.414158225,10.67677498,-4.074976921
14.66338687,0.683150887,16.43211174,-5.96590519
14.67341104,6.82133913,24.36611366,-2.106880426
14.68343557,8.961718559,16.70010757,10.63908768
14.69346036,6.136991978,6.582654953,7.603792191
14.70348573,6.247061729,5.807380676,3.777668715
14.71351099,5.629115105,9.96790123,-1.163509965
14.72353547,-1.80658114,10.65284634,-6.928418159
14.73356026,-11.28754234,8.258827209,-5.82233572
14.74358541,-16.89930916,9.034101486,-3.567100286
14.75361021,-16.18086433,9.805189133,-2.528017044
14.76363557,-11.04347515,9.125627518,-1.891526341
14.77366062,-4.028316975,9.618548393,-2.882753134
14.78368578,1.569093466,10.84905815,-4.381258488
14.7937112,4.690530777,10.52363396,-4.587040901
14.80373656,5.849255085,9.26919651,-2.964108944
14.81376104,6.011966705,8.737391472,-2.317448616
14.82378604,4.776672363,9.163912773,-3.91166687
14.83381052,1.616949916,9.451051712,-4.261617184
14.84383469,-1.840678811,9.149555206,-3.083750248
14.85385911,-4.162913322,9.144769669,-3.19382
14.86388375,-4.636692047,9.484550476,-4.137190342
14.87390802,-3.343969584,9.608977318,-4.510470867
14.88393312,-1.442872047,9.436694145,-4.802394867
14.89395786,0.117846519,9.494122505,-4.409972191
14.90398224,0.898504913,9.80997467,-4.165904045
14.91400719,0.472582459,9.80997467,-4.816751957
14.92403245,-0.854237676,9.709476471,-4.462614059
14.93405755,-2.367099762,9.924830437,-3.955335855
14.94408276,-3.21954298,9.78126049,-3.370888948
14.95410838,-3.042474031,9.556335449,-3.102892876
14.96413349,-2.237887383,9.766903877,-3.366103172
14.97415817,-1.433300734,10.06839943,-3.346960783
14.98418286,-0.973878801,10.06361389,-3.236890793
14.99420729,-0.835095108,9.934401512,-3.452244759
15.00423125,-0.854237676,9.814760208,-3.658027649
15.01425578,-1.203589797,9.719047546,-3.4809587
15.02428057,-1.643869162,9.527621269,-2.901895761
15.03430604,-1.648654819,9.532406807,-2.796013355
15.0443314,-1.155733347,9.771689415,-3.035893679
15.05435562,-0.623928487,9.771689415,-3.16032052
15.06438041,-0.370289296,9.479764938,-3.337389469
15.074405,-0.796809912,9.508479118,-5.334199905
15.08442911,-1.414158225,10.57627583,-4.031906128
15.09445323,-1.500299811,10.25563812,-3.236890793
15.10447765,-0.887737215,9.83868885,-3.366103172
15.11450208,-0.250648171,10.22692394,-3.796811342
15.12452734,-0.073579296,10.30827999,-3.710669756
15.13455224,-0.303290278,10.00139999,-3.174677372
15.14457687,-0.715453982,9.982257843,-3.380460262
15.15460151,-1.098305583,10.03968525,-3.662813187
15.1646263,-1.261017561,10.0205431,-3.337389469
15.17465073,-1.232303619,9.93918705,-3.614956856
15.18467567,-1.122233868,9.867402077,-4.055834293
15.1947,-1.131805062,9.766903877,-3.753740549
15.20472484,-1.174875975,9.608977318,-3.313461065
15.21474963,-1.098305583,9.589835167,-3.346960783
15.22477422,-1.136590719,9.83868885,-3.557528973
15.23479916,-1.663011789,9.943972588,-3.428316593
15.24482401,-2.33838582,9.78126049,-2.849253654
15.25484817,-2.467598438,9.690333366,-2.810968399
15.26487312,-2.170888424,9.78126049,-2.791227579
15.27489791,-1.845464468,9.728618622,-2.6620152
15.28492317,-1.51944232,9.508479118,-2.523231506
15.29494875,-1.174875975,9.474979401,-3.184248686
15.30497354,-1.37587297,9.546764374,-3.461816072
15.31499911,-2.424527645,9.317052841,-2.690729141
15.3250237,-3.487539053,9.527621269,-2.42273283
15.33504901,-3.832105398,10.88255692,-3.212962627
15.34507521,-3.439682484,12.91765308,-5.128417015
15.35510151,-2.797807932,13.97109318,-5.181059361
15.3651276,-2.079961061,13.16650677,-3.950550079
15.37515323,-0.993021369,12.48215961,-4.290330887
15.38517791,0.352343142,13.18564892,-3.782454491
15.39520291,1.324427366,13.84666634,-1.791027784
15.4052275,1.539781332,13.53021526,-0.680159807
15.4152525,1.520638824,12.81236839,-1.024726272
15.42527703,1.837089539,11.95035458,-1.675574064
15.43530192,2.291725874,11.08833981,-2.365305185
15.44532724,2.516651154,10.2652092,-3.437887907
15.45535219,2.215155602,9.556335449,-4.295116425
15.46537755,1.377069473,8.97667408,-4.275974274
15.47540307,0.165702969,8.474181175,-3.696312666
15.48542823,-1.37587297,8.182256699,-2.906681299
15.49545245,-3.396611691,7.976474285,-3.203391314
15.50547687,-5.809773445,8.019545555,-5.157131195
15.51550166,-8.400003433,8.057829857,-6.090332031
15.52552682,-10.57866859,7.645666599,-6.583851337
15.53555265,-11.98684502,6.812366009,-6.349354744
15.54557791,-12.1160574,6.080162525,-5.133202553
15.55560307,-11.17268753,5.562714577,-4.563112736
15.5656287,-9.175876617,5.433502197,-4.697110653
15.57565427,-6.41336298,5.994020939,-5.506483078
15.58568026,-3.588037491,6.276373863,-6.492924213
15.59570661,-2.142174482,5.793023586,-6.205785751
15.60573146,-2.711666346,5.179862976,-4.606183529
15.61575646,-4.713262558,5.012365341,-3.902095556
15.62578151,-6.466004848,5.280361176,-4.357329845
15.63580713,-6.796214581,5.419145107,-4.505684853
15.64583271,-5.919843197,5.132006168,-4.127619267
15.65585844,-4.765904427,4.686941147,-4.017549038
15.66588406,-3.985246181,4.768297195,-4.14197588
15.6759101,-3.722035646,5.309075356,-4.34775877
15.68593599,-3.688536167,5.864808083,-4.376472473
15.69596203,-3.305684566,6.329015732,-4.500899315
15.70598781,-2.994617462,6.721438885,-4.826323509
15.71601349,-3.927818298,7.157530785,-5.63090992
15.7260389,-6.072983742,7.731808186,-6.602993965
15.73606401,-8.692526817,8.172685623,-7.272984505
15.7460889,-10.40638542,8.292326927,-7.162914753
15.75611354,-10.12881851,8.196614265,-5.903691769
15.76613906,-7.969295979,8.057829857,-4.448257446
15.77616463,-5.2737813,8.053044319,-4.098905087
15.78618974,-3.229114056,8.555537224,-5.329414368
15.79621495,-2.056032896,9.489336014,-6.473781586
15.80623995,-1.653440475,10.23170948,-6.406782627
15.81626515,-2.180459738,10.46620655,-6.119045734
15.82629036,-3.62153697,10.78684425,-6.095117569
15.83631567,-5.422136307,11.18883896,-5.870192051
15.84634099,-6.614359856,11.20319557,-5.29591465
15.85636672,-6.499504566,10.86341476,-4.615755081
15.86639312,-5.536991596,10.25085258,-4.639683247
15.87641906,-4.421338081,10.23649502,-5.367699623
15.88644526,-3.932604074,10.99262714,-4.802394867
15.8964713,-4.29691124,11.48136139,-4.02712059
15.90649745,-4.80897522,10.87777138,-4.098905087
15.91652344,-4.746761799,10.0205431,-4.007977962
15.92654859,-4.177269936,10.17846966,-2.916252613
15.93657317,-3.286541939,10.5858469,-2.288734913
15.94659844,-2.333600283,10.33699417,-3.016751051
15.95662411,-1.801795483,10.01575756,-4.275974274
15.96664963,-1.715653777,10.06361389,-4.290330887
15.97667521,-1.87417829,9.886545181,-2.925823927
15.98670094,-2.572882652,9.60419178,-1.968096614
15.9967262,-3.439682484,9.360123634,-2.906681299
16.00675125,-3.932604074,9.331410408,-3.088535786
16.01677724,-4.134199142,9.12084198,-2.719442844
16.0268037,-4.607978344,8.852247238,-2.714657307
16.0368301,-5.264209747,8.498109818,-3.275176048
16.04685745,-5.699703693,8.297112465,-3.265604734
16.05688406,-5.800201893,7.813164234,-2.685943365
16.06691052,-5.77148819,7.138388157,-2.059023857
16.0769362,-5.982056618,6.937391281,-2.126022816
16.08696239,-6.125626087,7.420741081,-2.940180779
16.0969888,-5.694917679,9.288339615,-3.557528973
16.1070151,-3.607180119,16.43689728,-6.123831272
16.11704109,3.747160196,26.15235519,-5.123631477
16.12706651,9.248857498,16.15933037,6.267998695
16.13709192,4.36989212,3.26440835,5.606981754
16.1471175,-0.643071115,4.777868748,-2.844467878
16.15714359,-5.532206059,11.56271744,-3.792025566
16.16716922,-9.467801094,12.6879425,0
16.17719495,-9.405587196,10.3226366,2.322234392
16.18722099,-5.019543648,8.679964066,1.436291814
16.19724745,-0.418145746,9.043673515,-1.10608232
16.20727328,1.022931695,9.613762856,-5.583053589
16.21729953,-0.28414768,9.656833649,-7.666005611
16.22732651,-2.38624239,9.680762291,-5.908477306
16.23735291,-2.86480689,10.01575756,-2.068595171
16.24737953,-1.083948612,9.972686768,-0.267996132
16.25740547,0.884147942,9.384052277,-1.110867858
16.26743135,1.861017823,8.938388824,-2.705085993
16.27745755,2.621935368,8.81874752,-3.102892876
16.28748448,3.656233072,8.82831955,-2.800798893
16.2975112,3.996612072,9.130413055,-4.481756687
16.30753776,2.847458839,9.388837814,-6.224927902
16.31756495,1.003789067,9.096913338,-5.343770981
16.32759239,-0.485144794,9.283554077,-3.744169235
16.3376188,-1.648654819,10.25563812,-3.437887907
16.34764562,-2.596810818,10.69591713,-3.059821844
16.35767239,-3.142972469,10.28435135,-2.221735716
16.3676989,-2.735594511,10.10189915,-2.044667006
16.37772599,-1.667797327,10.04925728,-2.897109985
16.38775286,-0.701097012,9.896116257,-4.295116425
16.39777984,-0.384646237,9.78126049,-4.414757729
16.4078062,-0.537786901,9.565906525,-3.936193228
16.4178325,-1.00737834,9.446265221,-3.89730978
16.42785911,-1.596012712,9.628120422,-3.643670797
16.43788552,-1.989033818,9.795618057,-3.06460762
16.44791265,-2.132603168,9.656833649,-2.618944407
16.45793875,-1.945963025,9.446265221,-2.921038151
16.46796536,-1.691725612,9.360123634,-3.380460262
16.47799198,-1.509871125,9.307481766,-3.265604734
16.4880187,-1.332802176,9.369695663,-2.916252613
16.4980451,-1.117448211,9.537193298,-2.978466034
16.50807125,-1.026520967,9.699904442,-3.122035265
16.51809703,-1.227517962,9.628120422,-2.992822886
16.52812328,-1.634297848,9.513264656,-3.208176851
16.53814953,-2.16131711,9.532406807,-3.361317635
16.54817599,-2.668595552,9.613762856,-2.992822886
16.55820224,-2.38624239,9.637691498,-2.983251572
16.56822854,-1.850250125,9.570692062,-3.739383698
16.57825453,-1.787438512,9.551549911,-4.15633297
16.58828073,-1.821536183,9.594620705,-3.600599766
16.59830687,-1.758724689,9.628120422,-3.409173965
16.60833354,-1.591227055,9.60419178,-3.887738705
16.61835942,-1.505085468,9.699904442,-3.390031576
16.62838578,-1.428515077,9.776474953,-2.772084951
16.63841219,-1.39022994,9.829116821,-3.504886866
16.64843896,-1.47158587,9.833903313,-3.748954773
16.65846567,-1.572084427,9.853045464,-3.026322365
16.66849234,-1.773081541,10.01575756,-3.026322365
16.67851854,-1.945963025,10.10189915,-3.19382
16.68854422,-1.926820397,10.09711361,-3.059821844
16.69857057,-1.739582062,10.1832552,-3.189034462
16.70859708,-1.686939955,10.34656525,-3.39960289
16.71862385,-1.572084427,10.29392338,-2.997608662
16.72865062,-1.51944232,10.2221384,-3.088535786
16.73867661,-1.466800332,10.21196842,-3.552743435
16.74870349,-1.47158587,10.17368412,-3.906881094
16.75873036,-1.538584948,10.08754253,-3.758526087
16.76875745,-1.777867198,10.03968525,-3.734597921
16.77878484,-2.185245275,10.08275604,-3.739383698
16.78881104,-2.496312141,9.987043381,-3.643670797
16.79883771,-2.745165825,10.0779705,-4.003192425
16.80886453,-2.917448997,10.23649502,-4.256831646
16.81889094,-3.037688255,10.23649502,-4.122833252
16.82891755,-2.994617462,10.31306553,-3.89730978
16.83894437,-2.740380049,11.16012478,-4.266402721
16.84897104,-2.324028969,11.96471119,-5.463412285
16.85899713,-1.725225091,11.40000534,-4.998606682
16.86902422,-1.165304661,10.37049294,-3.189034462
16.87905052,-0.360718012,10.50449181,-3.811168194
16.8890776,0.266201526,11.36172009,-3.696312666
16.89910453,0.530010223,11.63928795,-3.667598963
16.90913041,0.654437006,11.58185959,-3.457030535
16.91915614,0.831505895,11.15533924,-2.944966555
16.9291826,1.094716311,10.73898792,-2.791227579
16.9392089,1.28614223,10.86341476,-2.925823927
16.94923474,1.075573802,11.07398319,-2.657229662
16.95926088,0.71186471,11.19841003,-2.025524378
16.96928771,0.845862806,11.27498055,-1.690529227
16.97931541,1.228714466,11.15533924,-2.011167526
16.98934219,1.602592945,10.7054882,-2.43708992
16.99936896,1.655235052,9.843474388,-2.690729141
17.00939594,1.228714466,9.0921278,-3.337389469
17.01942291,0.342771858,8.900103569,-3.653241873
17.02945052,-0.720239639,9.000602722,-3.299104214
17.0394775,-1.576870084,9.014959335,-2.360519648
17.04950599,-2.48195529,8.97667408,-1.307079315
17.05953312,-4.186841488,8.952746391,-0.411565483
17.06956073,-7.001997471,8.775676727,-0.756730139
17.07958771,-10.63131142,8.77089119,-3.940979004
17.08961489,-13.57627773,8.943174362,-4.888536453
17.09964312,-13.51884937,8.713463783,-3.265604734
17.10967057,-10.41117096,7.923233986,-2.887538671
17.11969844,-5.723631859,7.281957626,-2.441875458
17.12972573,-1.51944232,6.597012043,-1.872383714
17.13975291,-0.145363972,5.706283569,-1.896311998
17.14978047,-1.596012712,5.208576679,-1.853241086
17.15980797,-3.798605919,5.222933769,-2.207378864
17.16983505,-5.201996326,5.380859852,-2.762513638
17.17986245,-5.517848969,5.543571949,-2.772084951
17.18988953,-5.139184952,5.682355404,-2.394019127
17.19991719,-5.221138954,5.989234924,-2.183450699
17.20994432,-5.862415314,6.37687254,-2.465803623
17.21997099,-6.360720634,6.841079712,-2.571087837
17.22999864,-6.206982136,7.042675018,-2.13559413
17.24002614,-5.565705299,6.937391281,-1.872383714
17.25005406,-5.072185993,6.923034191,-1.8628124
17.26008151,-5.177470207,7.162316322,-1.843669891
17.2701089,-5.867201328,7.444669247,-1.858026743
17.28013646,-6.379863262,7.50209713,-2.14995122
17.29016344,-5.982056618,7.291528702,-1.963310957
17.30019114,-4.775475979,7.152745247,-1.321436286
17.31021765,-3.559323788,7.291528702,-1.096511006
17.32024458,-3.008974552,7.755736351,-1.173081279
17.33027083,-3.214757204,8.388039589,-1.039083242
17.34029713,-3.81296277,8.981459618,-1.120439172
17.35032245,-4.234697819,9.431908607,-1.412363529
17.36034807,-4.435695171,9.742975235,-1.608574986
17.37037437,-4.703691006,9.96790123,-2.159522533
17.38040172,-5.163113117,10.11625576,-2.51844573
17.39042807,-5.632704735,10.03489971,-2.403590441
17.40045375,-5.96291399,9.996614456,-2.441875458
17.41048031,-6.29790926,10.48056316,-2.61415863
17.42050661,-6.475576401,11.07876873,-2.595016241
17.43053354,-6.135197163,11.04048347,-2.461018085
17.44055958,-5.32163763,10.84427261,-2.403590441
17.45058609,-3.990031719,10.81555843,-2.068595171
17.46061271,-2.295315027,10.58106136,-1.407577872
17.47063906,-0.796809912,10.3226366,-0.943370342
17.48066588,-0.030508488,10.49970531,-1.240080357
17.49069271,-0.241076887,11.08833981,-1.800599098
17.50071859,-1.32801652,11.16969585,-2.489732027
17.51074448,-2.25703001,10.53320503,-2.863610506
17.52077094,-2.228316069,9.920044899,-2.959323406
17.5307976,-1.653440475,9.881759644,-3.189034462
17.54082385,-1.29451704,9.996614456,-4.424329281
17.55085,-1.495514154,9.972686768,-4.912465096
17.56087646,-2.223530531,9.585049629,-4.046263218
17.57090323,-3.157329559,9.019744873,-3.069393158
17.58093015,-3.741178274,8.780462265,-2.772084951
17.59095677,-3.903890133,8.890532494,-2.743371248
17.60098338,-3.817748547,9.848259926,-3.500101328
17.61101073,-2.486740828,13.65524101,-5.898906231
17.62103776,3.354737282,21.00479507,-7.277770042
17.631065,15.55992699,19.17069626,2.561516523
17.64109172,18.79681778,8.201399803,10.27537823
17.65111885,10.73360443,4.682155609,0.445065022
17.66114692,2.73260355,8.64167881,-7.201199532
17.67117442,-6.978068829,11.7589283,-7.469794273
17.68120245,-14.03091335,11.58185959,-2.111665964
17.69122969,-15.51087475,10.46142101,1.043868899
17.70125713,-11.36889839,9.259625435,-0.349352092
17.71128448,-4.459623337,8.598608017,-2.23130703
17.72131135,0.539581478,8.703892708,-4.778466702
17.73133786,1.319641709,9.336195946,-7.205985546
17.74136442,-0.792024314,10.23649502,-8.001000404
17.75139198,-2.414956331,10.7054882,-5.405984402
17.76141901,-0.676570594,10.08754253,-0.320638239
17.77144562,2.804388046,9.058030128,1.3310076
17.78147297,4.317250252,8.483752251,-2.566302299
17.79150036,3.292523861,8.469395638,-6.555137634
17.80152745,1.300499082,9.000602722,-6.559923172
17.811555,-0.327218503,9.417551994,-5.468197823
17.82158255,-1.261017561,9.245268822,-5.046463013
17.8316101,-1.529013634,9.159127235,-4.888536453
17.84163708,-1.165304661,9.384052277,-4.945964336
17.85166406,-0.394217521,9.60419178,-4.587040901
17.86169057,0.266201526,9.508479118,-4.204189301
17.87171599,0.788435042,9.168698311,-4.68275404
17.88174203,1.075573802,9.331410408,-5.300700188
17.89176781,0.783649445,9.766903877,-4.864608288
17.9017938,-0.08793623,9.719047546,-3.859024763
17.91181953,-0.792024314,9.379266739,-3.638885021
17.92184458,-0.715453982,9.412766457,-4.108476639
17.93187094,-0.135792688,9.556335449,-4.242474556
17.94189771,0.361914426,9.412766457,-4.074976921
17.95192401,0.625723124,9.278767586,-4.089334011
17.96195062,0.625723124,9.206983566,-4.290330887
17.97197687,0.530010223,9.149555206,-4.352544308
17.98200364,0.458225548,9.116056442,-4.275974274
17.99202995,0.208773777,9.178269386,-4.314259052
18.00205635,-0.221934304,9.254839897,-4.04147768
18.01208255,-0.671784937,9.317052841,-3.634099483
18.02210849,-1.002592683,9.441479683,-3.552743435
18.0321351,-1.203589797,9.556335449,-3.744169235
18.04216114,-1.361516118,9.541978836,-3.500101328
18.05218729,-1.543370605,9.546764374,-3.394817114
18.06221307,-1.538584948,9.532406807,-3.634099483
18.07223854,-1.29451704,9.503693581,-3.950550079
18.08226422,-1.083948612,9.498908043,-4.223331928
18.09229015,-0.978664458,9.508479118,-4.228117466
18.10231604,-0.949950576,9.417551994,-4.15633297
18.11234224,-0.930808008,9.360123634,-4.194618225
18.12236828,-0.988235772,9.532406807,-4.094119549
18.13239515,-1.174875975,9.675976753,-3.485744476
18.1424214,-1.24666059,9.695118904,-3.533600807
18.15244755,-1.069591761,9.757332802,-4.094119549
18.16247312,-0.815952539,9.848259926,-4.15633297
18.17249812,-0.859023333,9.709476471,-4.060619831
18.18252375,-1.122233868,9.570692062,-3.916452408
18.19254901,-1.648654819,9.010173798,-4.242474556
18.20257458,-2.587239504,9.29791069,-6.607779503
18.21260031,-3.224328518,11.14098263,-4.094119549
18.22262604,-2.754737139,10.14975548,-3.380460262
18.23265219,-1.256231904,10.00139999,-2.849253654
18.24267802,0.026919255,10.33699417,-2.657229662
18.25270422,0.213559419,9.977472305,-3.61017108
18.26272953,-0.370289296,9.848259926,-3.165106058
18.27275552,-1.174875975,10.00139999,-3.380460262
18.28278166,-1.878963947,10.1210413,-4.146761417
18.29280724,-2.381456852,9.829116821,-4.065405846
18.30283265,-2.510669231,9.642477036,-4.003192425
18.31285765,-2.448455811,9.853045464,-4.615755081
18.32288338,-2.151745796,10.90170002,-4.189832687
18.33290937,-1.749153376,12.304492,-5.209773064
18.34293562,-1.337587833,12.75015545,-5.812764645
18.35296177,-1.117448211,12.3236351,-3.863810301
18.36298781,-0.710668325,12.52044487,-4.66839695
18.37301338,-0.121435747,12.97508049,-3.998406649
18.38303911,0.63050878,12.33799171,-2.451446772
18.39306463,1.391426325,11.89292717,-2.868396044
18.40308984,2.052443504,12.08913803,-2.978466034
18.41311562,2.243869543,12.62094307,-2.825325251
18.42314062,1.688734531,13.05643654,-2.973680258
18.43316646,0.821934581,12.82194042,-2.609373093
18.44319177,0.113060869,12.47737408,-3.217748165
18.4532176,-0.078364938,11.60578823,-4.520041943
18.46324323,0.496510684,10.70070267,-5.525625706
18.47326911,1.166501045,10.19282627,-5.080560684
18.483295,0.587437987,10.03011417,-4.113262177
18.49332083,-1.672582984,9.666405678,-4.429114819
18.50334583,-4.655834675,9.178269386,-5.214558601
18.51337125,-7.332206726,8.43589592,-4.601397991
18.52339672,-9.69811058,7.904091358,-4.199403763
18.53342239,-11.63689518,7.981259823,-3.748954773
18.54344802,-12.44626713,8.431110382,-2.475374937
18.55347354,-11.19182968,8.579465866,-1.512862086
18.56349927,-8.538787842,7.986045361,-1.60378933
18.57352469,-5.871986866,6.826723099,-2.374876499
18.58355041,-3.985246181,5.629713535,-2.729014158
18.59357625,-2.860021353,4.590630054,-1.66600275
18.60360166,-2.548954248,3.786641836,-0.699302435
18.61362687,-2.793022156,3.384049416,-0.378065974
18.62365166,-3.248256683,3.206980467,-0.239282265
18.6336764,-3.822534084,3.053839922,-0.28713873
18.64370125,-4.320839405,3.02512598,-0.516849697
18.65372666,-4.545764923,3.120838881,-0.449850649
18.66375203,-4.497908592,3.202194929,-0.157926291
18.67377719,-4.440480709,3.355335474,0.081355967
18.68380317,-4.531407833,3.667000771,-0.110069841
18.69382922,-4.828117847,4.059423447,-0.440279365
18.70385573,-5.235496044,4.303491592,-0.684945464
18.7138826,-5.742774487,4.408775806,-0.804586589
18.72390922,-6.092126369,4.432703972,-0.728016317
18.73393541,-6.250052929,4.49970293,-0.584446907
18.74396224,-5.953342915,4.682155609,-0.55992049
18.75398797,-5.398207664,4.859224796,-0.545563579
18.76401432,-4.871188641,5.074578762,-0.780658364
18.7740412,-4.349553585,5.534000397,-0.766301453
18.78406739,-4.062414646,6.166304111,-0.502492726
18.79409385,-4.110270977,7.114459991,-0.81894356
18.80412021,-4.272983074,8.397610664,-1.206580877
18.81414666,-4.397409916,9.742975235,-0.996012449
18.82417286,-4.684548378,10.84905815,-1.130010486
18.83419922,-5.062614441,11.59621716,-1.747956991
18.84422547,-5.283352375,12.28056431,-2.078166485
18.85425166,-5.172684193,12.92243862,-2.379662037
18.86427802,-4.765904427,13.44885921,-2.724228621
18.8743039,-4.842474937,14.16251945,-3.993621111
18.88433,-5.651846886,14.82353592,-4.984249592
18.89435666,-6.872784615,14.4879427,-4.807180882
18.90438229,-7.495516777,13.34836102,-3.974478483
18.91440828,-7.068996429,12.09392357,-2.810968399
18.92443463,-5.326423168,10.3226366,-1.695314884
18.9344613,-3.31525588,9.819545746,-0.574875653
18.9444876,-2.271386862,10.30349445,-2.580659151
18.95451328,-2.515454769,10.98784161,-4.491328239
18.96453984,-3.243471146,10.80598736,-5.248058319
18.97456635,-3.851248026,10.38963604,-5.171487808
18.98459297,-4.191627026,10.08275604,-3.887738705
18.99461859,-4.047459602,9.963115692,-2.700300455
19.0046438,-2.951546669,11.78285694,-2.892324448
19.01466953,-0.983450115,14.43051529,-3.811168194
19.02469484,2.554936409,14.88574982,-1.287936807
19.03472026,7.640282631,13.29093361,2.930609465
19.04474635,10.05344391,10.38963604,0.938584685
19.05477135,6.00239563,8.804390907,-3.500101328
19.06479698,-2.094317913,9.221340179,-8.350353241
19.07482245,-9.443872452,10.63848972,-4.941178799
19.08484786,-11.85224915,10.59063339,2.059023857
19.09487359,-8.366504669,9.067601204,0.742373228
19.1048988,-2.467598438,8.684749603,-3.078964472
19.11492406,1.937588096,9.163912773,-5.401198864
19.12494989,2.516651154,9.312267303,-6.569494724
19.13497578,0.491725057,9.206983566,-6.9619174
19.14500041,-0.059222359,9.038887978,-4.165904045
19.15502573,2.028515339,9.077172279,-0.871585667
19.16505088,3.737588882,9.000602722,-1.843669891
19.17507588,3.110669374,9.019744873,-4.271188259
19.18510031,1.04685986,9.355338097,-5.717051506
19.19512484,-0.533001244,9.642477036,-5.094917774
19.20514984,-0.763310432,9.709476471,-3.165106058
19.21517526,-0.461216569,9.518050194,-3.169891834
19.22520041,-0.370289296,9.460622787,-3.514458179
19.23522552,-0.159720913,9.546764374,-3.380460262
19.24525151,0.151346028,9.608977318,-3.974478483
19.25527755,0.290129751,9.637691498,-5.204987526
19.2653039,0.065204419,9.589835167,-5.415555954
19.27532995,-0.518644333,9.503693581,-4.773681164
19.28535599,-1.232303619,9.388837814,-4.118047714
19.2953825,-1.696511269,9.393623352,-4.007977962
19.30540901,-1.792224169,9.580264091,-3.792025566
19.31543562,-1.51944232,9.652048111,-3.380460262
19.32546219,-1.064806104,9.494122505,-3.5766716
19.33548844,-0.686141908,9.379266739,-3.964907169
19.34551453,-0.662213683,9.321838379,-3.969692707
19.35554005,-0.95952189,9.340981483,-3.634099483
19.36556573,-1.32801652,9.29791069,-3.653241873
19.37559172,-1.529013634,9.264410973,-3.62452817
19.38561755,-1.414158225,9.345767021,-3.351746321
19.39564427,-0.949950576,9.412766457,-3.169891834
19.40567109,-0.681356251,9.474979401,-3.710669756
19.41569771,-1.050449133,9.508479118,-3.936193228
19.42572453,-1.710868239,9.494122505,-4.007977962
19.43575135,-2.24267292,9.45583725,-4.051048756
19.44577896,-2.357528448,9.407979965,-3.892524242
19.4558063,-2.228316069,9.388837814,-4.007977962
19.4658339,-2.084746838,9.451051712,-3.998406649
19.47586052,-1.902892232,9.589835167,-3.955335855
19.48588729,-1.610369682,9.738189697,-4.17069006
19.49591406,-1.232303619,9.747760773,-4.161118507
19.50593989,-0.997807026,9.656833649,-4.357329845
19.51596724,-0.86380899,9.719047546,-4.893322468
19.52599375,-0.91166544,9.905687332,-4.907679081
19.53602005,-1.117448211,9.900901794,-4.826323509
19.54604651,-1.270588875,9.80997467,-4.735395908
19.5560738,-1.19880414,9.637691498,-4.534399033
19.56610052,-1.284945726,9.364909172,-5.439484119
19.57612781,-1.280160069,10.34656525,-5.066203594
19.58615469,-1.170090318,10.33699417,-4.601397991
19.59618182,-0.662213683,10.16411209,-4.381258488
19.60620864,-0.389431894,10.03489971,-4.007977962
19.61623573,-0.696311414,10.2652092,-4.371686935
19.62626307,-1.19880414,10.49491978,-4.113262177
19.63628974,-1.404586911,10.28913784,-3.533600807
19.64631708,-1.495514154,10.31785107,-3.437887907
19.65634401,-1.581655741,10.90648556,-3.739383698
19.66637026,-1.82632184,11.75414276,-4.615755081
19.67639646,-2.118246317,11.84506989,-5.012963295
19.68642208,-2.319243431,10.95434189,-3.428316593
19.69644817,-2.180459738,10.75813103,-3.72024107
19.70647401,-1.634297848,11.76371479,-4.381258488
19.7165001,-1.05523479,12.01256752,-3.150749207
19.72652666,-0.466002196,11.58664513,-2.590230465
19.73655229,0.256630242,11.52921772,-2.935395241
19.74657828,1.018146038,11.62014484,-3.007179976
19.75660479,1.295713425,11.47657585,-2.940180779
19.76663135,0.960718274,11.44307613,-3.078964472
19.77665812,0.381056994,11.61535931,-2.685943365
19.78668474,-0.198006079,11.89292717,-2.427518606
19.7967114,-0.671784937,11.84985638,-2.322234392
19.80673755,-0.725025237,11.35214901,-2.830111027
19.81676396,-0.145363972,10.87298584,-3.629313707
19.82679015,1.176072359,10.56670475,-4.319045067
19.83681651,2.129014015,10.1210413,-4.754538536
19.84684333,2.167299032,9.594620705,-4.587040901
19.8568701,1.501496196,9.096913338,-3.619742393
19.86689661,0.285344094,8.627322197,-2.121237278
19.87692291,-2.127817631,8.230113029,-1.168295622
19.88694932,-5.733202934,8.124829292,-3.145963669
19.89697599,-9.625727654,8.383254051,-4.319045067
19.90700271,-12.7381916,8.569893837,-4.692325115
19.9170287,-13.60020542,8.565108299,-5.300700188
19.92705422,-11.26840019,7.951947689,-4.295116425
19.93708026,-7.164709091,7.042675018,-3.093321562
19.94710677,-3.095116138,6.008377552,-1.584646821
19.95713281,-1.284945726,5.194219589,0.0526421
19.96715937,-2.137388945,5.06500721,0.440279365
19.97718547,-4.023531437,5.371288776,-0.406779855
19.98721114,-5.412564754,5.543571949,-1.541576028
19.99723791,-5.623133183,5.534000397,-1.982453585
20.00726484,-4.746761799,5.380859852,-1.939382792
20.01729161,-3.166900873,5.122435093,-1.326221943
20.02731828,-1.629512191,4.710869789,-0.411565483
20.03734531,-0.935593665,4.720440865,-0.41635114
20.0473714,-1.667797327,5.572285652,-0.924227774
20.05739817,-3.650250912,6.903891563,-1.551147223
20.06742489,-6.317649841,7.798807144,-2.317448616
20.0774513,-8.745168686,7.703094482,-3.021536827
20.08747781,-10.14796066,7.147959232,-2.815753937
20.09750422,-9.774680138,6.798008919,-1.599003673
20.10753052,-7.701299667,6.707081795,-0.263210505
20.11755708,-5.206781864,6.894320011,0.086141616
20.12758349,-3.387040377,7.325028419,-0.459421933
20.13761,-2.35274291,7.88494873,-1.115653515
20.1476363,-1.739582062,8.679964066,-1.350150228
20.15766198,-1.524227977,9.5754776,-1.316650629
20.16768838,-1.888535261,10.3848505,-1.532004714
20.17771427,-2.883949518,11.09312534,-1.953739643
20.18774062,-4.349553585,11.89292717,-2.43708992
20.19776755,-5.809773445,12.68315601,-2.887538671
20.20779416,-6.934998035,12.98465252,-3.093321562
20.21782005,-7.55294466,12.45823097,-3.251247883
20.22784625,-7.490731239,11.75414276,-3.021536827
20.23787224,-6.676573277,11.20319557,-2.331805706
20.24789916,-5.426921844,10.51406288,-1.795813441
20.25792567,-4.138985157,9.60419178,-1.594218135
20.26795213,-3.382254839,9.546764374,-1.858026743
20.2779789,-3.549752474,10.40877819,-3.3852458
20.28800489,-4.134199142,10.39920712,-4.912465096
20.2980312,-4.287340164,9.393623352,-4.639683247
20.30805724,-4.091128349,8.732605934,-3.62452817
20.3180838,-3.664607763,8.617751122,-2.964108944
20.32811,-3.339184046,8.368897438,-2.336591244
20.33813604,-3.449253798,8.321041107,-2.484946251
20.34816224,-3.253042459,10.47099209,-4.735395908
20.35818844,-1.155733347,17.57169342,-9.873384476
20.36821515,7.472784996,22.14437675,-6.325426579
20.37824213,14.39641762,14.05244923,5.286343575
20.38826833,9.675378799,6.966104984,0.339780807
20.39829484,2.641077995,9.048459053,-6.334998131
20.4083213,-6.466004848,11.51486111,-3.284747362
20.41834734,-13.15035534,10.65763187,4.189832687
20.42837286,-13.29392433,9.556335449,4.242474556
20.43839729,-6.867999077,9.498908043,1.393221021
20.44842255,0.774078131,9.714262009,0.339780807
20.45844844,4.657031059,9.163912773,-3.447459221
20.46847489,3.742374659,8.579465866,-8.556734085
20.47850203,0.506081998,8.780462265,-11.70688438
20.48852828,-2.180459738,9.561120987,-7.957930088
20.49855448,-2.501097918,9.76211834,-1.383649707
20.50858041,-1.634297848,9.173483849,-0.535992265
20.51860604,-1.036092162,8.967103004,-3.346960783
20.52863265,-0.279362053,9.613762856,-3.303889751
20.53865864,1.027717352,10.03489971,-1.527219057
20.54868469,2.483151674,9.833903313,-2.216950178
20.5587101,3.354737282,9.302696228,-4.663611412
20.56873541,3.316452265,8.732605934,-6.138188362
20.57876177,2.430509567,8.656036377,-5.707480431
20.58878755,1.085145116,8.9479599,-5.463412285
20.59881281,0.002991028,9.206983566,-5.870192051
20.60883844,-0.744167864,9.60419178,-5.784050465
20.61886463,-1.213161111,9.943972588,-4.826323509
20.62889088,-1.418943882,9.920044899,-3.571886063
20.63891666,-1.045663476,9.699904442,-2.796013355
20.64894265,-0.006580262,9.70468998,-2.733799934
20.65896864,0.946361363,9.661619186,-3.078964472
20.66899484,1.133001566,9.474979401,-3.859024763
20.67902187,0.299701035,9.388837814,-4.127619267
20.68904864,-1.012163997,9.494122505,-3.748954773
20.69907547,-2.14696002,9.513264656,-3.256033421
20.70910245,-2.740380049,9.513264656,-3.169891834
20.7191288,-2.759522676,9.565906525,-3.0981071
20.72915526,-2.367099762,9.623334885,-2.882753134
20.7391812,-1.821536183,9.532406807,-3.179463148
20.74920797,-1.51944232,9.503693581,-3.366103172
20.75923484,-1.505085468,9.608977318,-3.069393158
20.76926156,-1.749153376,9.594620705,-3.050250769
20.77928833,-2.142174482,9.594620705,-2.87318182
20.78931541,-2.209173441,9.738189697,-2.685943365
20.79934166,-1.782652855,9.79083252,-3.011965513
20.80936776,-1.442872047,9.728618622,-3.873381615
20.81939422,-1.232303619,9.680762291,-3.960121393
20.82942057,-0.815952539,9.599406242,-3.873381615
20.83944672,-0.336789787,9.518050194,-4.060619831
20.84947281,-0.044865426,9.522835732,-4.275974274
20.85949906,-0.126221389,9.585049629,-4.658825874
20.86952515,-0.796809912,9.742975235,-4.443471432
20.87955187,-1.457229018,9.80997467,-4.15633297
20.88957885,-1.643869162,9.843474388,-3.744169235
20.89960573,-1.289731383,9.920044899,-3.500101328
20.9096325,-0.859023333,10.0779705,-3.753740549
20.91965875,-0.91166544,10.19761181,-3.552743435
20.9296851,-1.265803218,10.23170948,-3.433102369
20.93971166,-1.643869162,10.1832552,-3.5766716
20.94973849,-1.883749604,10.35613632,-3.701098442
20.95976541,-1.572084427,10.20718288,-3.284747362
20.96979281,-1.304088354,9.867402077,-3.552743435
20.97981958,-1.160519004,9.876974106,-4.0127635
20.98984573,-1.337587833,10.00618649,-3.672384501
20.9998725,-1.87417829,9.929615974,-3.318246841
21.0098987,-2.328814745,9.987043381,-3.485744476
21.01992448,-2.367099762,10.21196842,-3.452244759
21.02995114,-2.137388945,10.40877819,-3.70588398
21.03997703,-1.821536183,11.06441212,-4.017549038
21.05000317,-1.466800332,11.80199909,-4.821537495
21.0600301,-1.127019525,12.0412817,-4.941178799
21.07005666,-0.815952539,11.80678558,-3.777668715
21.08008302,-0.537786901,11.80199909,-3.863810301
21.09010948,-0.293718994,12.21356487,-3.839882135
21.1001364,0.132203445,12.44806194,-2.944966555
21.11016281,0.66400826,12.5491581,-2.604587555
21.12018906,0.941575706,12.38106251,-2.42273283
21.13021557,0.577866673,12.26620674,-1.920240164
21.14024151,-0.030508488,12.46301651,-1.517647743
21.15026807,-0.365503669,12.71187019,-1.402792215
21.16029427,-0.198006079,12.49173069,-1.575075507
21.17032104,0.754935563,11.84506989,-2.805584431
21.18034844,2.229512453,11.15533924,-3.950550079
21.19037562,3.512663603,10.46142101,-5.128417015
21.20040286,4.092324734,9.766903877,-6.138188362
21.21043041,3.891327858,8.957531929,-5.9515481
21.22045687,3.034099102,7.961519241,-4.759324074
21.23048328,1.257428288,6.985247612,-3.093321562
21.24050916,-1.710868239,6.530013084,-2.374876499
21.25053552,-5.455635548,6.429514408,-3.308675528
21.26056146,-9.94696331,6.515655994,-5.750551224
21.27058807,-14.57228947,7.200601578,-7.766504288
21.28061432,-17.2678051,7.990831375,-5.578267574
21.29064031,-16.31964874,8.005187988,-3.61017108
21.30066594,-11.94855976,7.339385033,-3.725026608
21.31069192,-6.312864304,6.453442574,-3.595814228
21.32071776,-1.941177368,5.395216942,-3.600599766
21.33074406,-0.509073019,4.370490551,-4.342973232
21.34077047,-1.495514154,4.068994999,-4.749752998
21.35079651,-3.31525588,4.403990269,-4.711467743
21.36082281,-5.048257351,4.773082733,-4.515256405
21.37084797,-6.513861656,5.074578762,-4.386044025
21.38087411,-7.605587006,5.289932728,-4.36211586
21.39090109,-8.160721779,5.423930645,-4.189832687
21.40092745,-7.797012806,5.4622159,-3.361317635
21.41095333,-6.360720634,5.404788017,-2.642872572
21.42097901,-4.622334957,5.481358528,-2.547159672
21.43100573,-3.626322746,5.764309883,-3.217748165
21.44103219,-3.789034605,6.21894598,-4.500899315
21.45105823,-4.914259434,6.55394125,-5.315057278
21.46108422,-6.327221394,6.702296257,-5.329414368
21.47111067,-7.183851719,6.879963398,-4.831109047
21.48113692,-6.93978405,7.210172653,-4.165904045
21.49116271,-5.77148819,7.540382385,-3.725026608
21.5011889,-4.450051785,7.861020565,-3.892524242
21.51121515,-3.645465374,8.359326363,-4.457828522
21.52124104,-3.535395384,8.943174362,-4.788038254
21.53126708,-4.158127785,9.613762856,-5.214558601
21.54129276,-4.962115765,10.08754253,-5.874977589
21.55131864,-5.211567879,10.09711361,-5.602196217
21.56134479,-4.928616524,9.80997467,-4.922036171
21.57137083,-4.607978344,9.675976753,-4.960321426
21.5813976,-4.555335999,10.03489971,-5.731408596
21.59142422,-5.067399979,10.90648556,-5.874977589
21.60145088,-6.111268997,11.40000534,-5.946762562
21.61147734,-6.930212498,11.04526901,-6.099903107
21.62150364,-6.757929325,10.55234814,-5.496912003
21.63152974,-5.522634506,10.24128056,-4.036691666
21.64155614,-4.138985157,10.04447079,-2.810968399
21.65158224,-3.152543783,9.843474388,-2.849253654
21.66160791,-2.572882652,9.656833649,-3.500101328
21.67163344,-2.391027927,9.991828918,-3.648456335
21.68165859,-2.874378204,10.30827999,-3.772883177
21.6916839,-3.401397467,10.30827999,-4.055834293
21.70170937,-3.253042459,10.17846966,-3.519243956
21.71173474,-2.644667149,9.953543663,-2.858824968
21.72176088,-2.180459738,10.06839943,-2.729014158
21.73178703,-1.931606054,10.00139999,-2.752942562
21.74181385,-1.777867198,9.656833649,-2.427518606
21.75184015,-1.696511269,9.642477036,-1.939382792
21.76186687,-1.758724689,10.21196842,-1.73360002
21.77189333,-1.414158225,11.87378407,-1.877169371
21.78191932,-0.657428026,14.55494213,-1.886740685
21.79194552,-2.381456852,14.02373505,-1.829312921
21.80197166,-3.339184046,11.80199909,-0.473778874
21.81199797,0.318843603,9.623334885,6.512066841
21.8220237,2.833101988,7.540382385,2.954537868
21.83204989,0.093918286,8.354539871,-7.800003529
21.84207588,-5.182255745,9.474979401,-9.638887405
21.85210182,-9.601799011,10.59063339,-2.394019127
21.8621275,-10.80897808,11.05484104,2.00638175
21.87215364,-7.792226791,10.50927734,0.038285162
21.88218078,-2.81695056,10.72941685,-0.957727253
21.89220724,0.941575706,10.73420238,-1.01036942
21.90223344,2.119442701,10.21196842,-0.996012449
21.91225953,1.47756803,9.795618057,-1.642074585
21.92228531,0.80757767,9.345767021,-3.327818155
21.93231208,0.400199592,9.135198593,-4.955535889
21.94233864,-0.432502687,9.029315948,-4.850251675
21.95236531,-1.639083505,8.928817749,-3.91166687
21.96239307,-2.233101845,9.010173798,-3.270390272
21.97242041,-1.821536183,9.498908043,-3.89730978
21.98244771,-0.499501735,9.987043381,-3.667598963
21.99247458,0.898504913,9.900901794,-3.069393158
22.00250239,1.655235052,9.580264091,-3.89730978
22.01252989,1.434497118,9.436694145,-5.11884594
22.02255651,0.194416836,9.508479118,-5.012963295
22.03258333,-1.596012712,9.757332802,-4.366901398
22.04261026,-3.004188776,10.00139999,-4.505684853
22.05263666,-3.477967739,9.982257843,-4.476971149
22.0626638,-3.01376009,9.848259926,-4.261617184
22.07269062,-2.094317913,9.857831001,-4.094119549
22.08271812,-1.39022994,9.800403595,-3.710669756
22.09274515,-1.155733347,9.79083252,-3.346960783
22.10277234,-1.222732425,9.929615974,-3.49531579
22.11279984,-1.39022994,9.948758125,-3.725026608
22.12282692,-1.686939955,9.824331284,-3.835096598
22.13285375,-1.969891191,9.608977318,-3.62452817
22.14288078,-2.017747641,9.45583725,-3.165106058
22.15290854,-1.624726534,9.39840889,-3.169891834
22.1629364,-1.036092162,9.259625435,-3.323032379
22.17296427,-0.628714144,9.168698311,-3.3852458
22.18299213,-0.585643351,9.183054924,-3.739383698
22.19301984,-0.969093144,9.230911255,-3.72024107
22.20304677,-1.500299811,9.470193863,-3.524029493
22.21307364,-1.787438512,9.747760773,-3.586242914
22.2231001,-1.720439434,9.776474953,-3.165106058
22.23312677,-1.361516118,9.599406242,-2.901895761
22.2431539,-0.815952539,9.484550476,-3.500101328
22.25318099,-0.552143812,9.465408325,-3.945764542
22.26320791,-1.00737834,9.192625999,-4.529613495
22.27323479,-1.773081541,9.915258408,-4.601397991
22.28326208,-1.974676847,9.920044899,-2.825325251
22.2932889,-1.107876897,9.216554642,-2.892324448
22.30331526,-0.193220422,9.738189697,-3.586242914
22.31334151,-0.226719946,9.987043381,-4.371686935
22.3233675,-0.978664458,9.675976753,-4.299902439
22.33339328,-1.845464468,9.786046028,-3.763311863
22.34341989,-2.544168711,9.795618057,-3.739383698
22.3534463,-2.888735056,9.671191216,-3.835096598
22.36347281,-2.91266346,9.800403595,-3.442673683
22.3734988,-2.697309256,9.91047287,-3.117249727
22.38352463,-2.324028969,9.757332802,-3.519243956
22.39355015,-1.835893154,9.652048111,-3.490530014
22.4035763,-1.399801254,9.494122505,-3.19382
22.41360276,-1.213161111,9.695118904,-3.476173162
22.42362864,-1.337587833,10.05404282,-3.571886063
22.43365489,-1.792224169,10.06361389,-3.083750248
22.44368078,-2.213959217,9.929615974,-2.844467878
22.4537062,-2.309672117,10.0205431,-2.791227579
22.4637314,-2.056032896,9.972686768,-2.671586514
22.47375682,-1.533799291,9.819545746,-2.781656265
22.48378245,-0.993021369,9.776474953,-2.815753937
22.49380854,-0.902094126,9.819545746,-2.954537868
22.50383469,-1.251446247,10.1401844,-3.16032052
22.51386031,-1.701296926,11.19841003,-3.4809587
22.52388651,-2.118246317,12.4241333,-4.663611412
22.53391271,-2.261815548,12.71665573,-4.55354166
22.5439389,-2.008176327,12.20877934,-3.428316593
22.55396479,-1.395015597,12.2039938,-3.979264021
22.5639914,-0.892522871,12.76451206,-3.906881094
22.57401708,-0.647856712,13.34836102,-3.107678413
22.58404281,-0.198006079,13.38664627,-2.183450699
22.59406854,0.434297323,13.32921886,-1.532004714
22.60409453,1.209571838,13.25743389,-1.546361685
22.61412135,2.085943222,12.87458229,-1.709671736
22.62414844,2.967100143,12.23749352,-2.255235434
22.63417531,3.570091486,11.58664513,-3.461816072
22.64420177,3.651447296,10.83948612,-4.778466702
22.65422817,3.345165968,10.03011417,-5.50169754
22.66425489,2.857030153,9.29791069,-5.539982796
22.67428146,2.191227436,8.560322762,-5.267200947
22.68430802,1.133001566,7.85144949,-4.161118507
22.69433552,-0.585643351,7.234101295,-2.547159672
22.70436276,-3.181257725,6.870391846,-2.767299414
22.71438995,-6.489933014,6.831508636,-5.008177757
22.72441625,-10.48774147,7.100102901,-7.800003529
22.73444286,-14.24208069,7.392027378,-9.245866776
22.74446958,-16.20479393,7.808378696,-8.058428764
22.75449646,-14.62971783,7.808378696,-6.023332596
22.76452328,-10.19581699,7.18145895,-4.821537495
22.77454989,-5.009972572,6.151947021,-5.176273346
22.7845764,-1.347159147,5.031507969,-5.83669281
22.79460317,-0.552143812,4.236492634,-5.573482037
22.80463005,-2.127817631,4.174279213,-4.98903513
22.81465687,-4.03788805,4.590630054,-4.888536453
22.82468401,-5.489135265,5.433502197,-5.300700188
22.83471026,-6.5760746,6.214160442,-5.96590519
22.84473797,-7.816154957,6.463014126,-7.048058987
22.85476573,-8.888737679,6.104090691,-7.350152969
22.86479312,-9.223732948,5.467001438,-6.104688644
22.87481932,-8.433503151,5.098506927,-4.66839695
22.88484495,-6.643074036,5.098506927,-3.744169235
22.89487088,-4.732405186,5.390431404,-2.690729141
22.90489666,-4.009174347,5.893522263,-3.232105255
22.91492229,-4.785047054,6.707081795,-5.386841774
22.92494916,-6.230910301,7.363313675,-6.832705021
22.93497541,-7.490731239,7.411170006,-6.933203697
22.94500177,-8.175078392,7.152745247,-6.085546017
22.9550275,-8.017151833,7.109674454,-4.453042984
22.96505359,-6.867999077,7.444669247,-3.126821041
22.97507911,-4.938187599,7.846663475,-2.652443886
22.98510463,-3.037688255,8.057829857,-3.203391314
22.9951301,-1.998605132,8.488538742,-4.424329281
23.00515635,-2.25703001,9.278767586,-5.334199905
23.0151826,-3.425325632,10.04447079,-5.444269657
23.02520823,-4.631906509,10.56191921,-5.070989609
23.03523396,-5.24506712,10.68156052,-4.610969067
23.04526,-5.43649292,10.40399265,-4.567898273
23.05528567,-5.7571311,10.09232807,-5.520840168
23.06531182,-6.010770321,10.10189915,-6.239284992
23.07533823,-6.786643028,10.61456108,-5.228915691
23.08536406,-7.720442295,10.86341476,-4.548755646
23.09539021,-8.337790489,10.55234814,-4.725824833
23.10541625,-7.600800991,9.987043381,-5.085346222
23.11544229,-5.517848969,9.900901794,-4.323830605
23.12546838,-3.578466177,9.78126049,-3.72024107
23.1354939,-3.114258766,9.374481201,-4.309473515
23.14551911,-4.253840446,9.364909172,-5.367699623
23.15554416,-5.828916073,9.42712307,-5.544768333
23.16556995,-6.71964407,9.019744873,-4.371686935
23.17559599,-6.686144829,8.172685623,-2.800798893
23.18562219,-5.953342915,7.870592117,-2.791227579
23.19564786,-5.177470207,7.8370924,-3.150749207
23.20567385,-4.627120972,7.564310551,-2.849253654
23.21569937,-4.521836758,8.416753769,-3.145963669
23.22572531,-3.736392498,12.93679523,-4.716253281
23.23575099,-0.614357233,22.21137619,-4.725824833
23.24577656,4.814957142,21.74238205,3.380460262
23.25580224,6.041278839,10.33220863,9.677172661
23.26582849,3.680161238,5.309075356,3.275176048
23.27585458,-0.121435747,9.628120422,-6.56470871
23.28588,-6.891927242,11.61535931,-5.530411243
23.29590541,-12.9009037,9.589835167,1.292722464
23.30593073,-13.23171139,8.498109818,1.350150228
23.3159564,-7.26042223,8.971888542,-2.32701993
23.32598239,-1.136590719,10.41356373,-6.02811861
23.33600838,1.348355532,10.4279213,-7.210771084
23.34603536,0.879362345,9.79083252,-5.731408596
23.35606135,-0.193220422,9.307481766,-2.618944407
23.36608755,0.175274253,9.345767021,-0.641874671
23.37611375,1.219143152,9.647262573,-1.086939692
23.38613958,1.52542448,9.848259926,-2.02073884
23.39616599,1.185643673,9.546764374,-1.182652593
23.4061914,1.085145116,9.202198029,-1.273579836
23.41621677,1.458425403,9.340981483,-3.442673683
23.42624219,1.798804402,9.537193298,-5.204987526
23.43626771,1.420140266,9.436694145,-5.262415409
23.44629349,0.361914426,9.388837814,-4.855037212
23.45631927,-0.997807026,9.76211834,-4.697110653
23.46634495,-1.998605132,10.03011417,-4.381258488
23.47637083,-2.24267292,9.987043381,-4.185046673
23.4863962,-1.888535261,9.948758125,-4.02712059
23.49642219,-1.19880414,9.929615974,-4.175475597
23.50644786,-0.446859628,9.819545746,-3.945764542
23.51647406,0.04127619,9.5754776,-3.648456335
23.52650031,0.074775711,9.460622787,-3.993621111
23.53652588,-0.399003178,9.738189697,-3.878167391
23.54655125,-0.777667344,9.795618057,-3.256033421
23.55657719,-0.763310432,9.599406242,-3.19382
23.56660302,-0.748953462,9.513264656,-3.62452817
23.57662817,-0.839880764,9.494122505,-3.586242914
23.58665375,-1.050449133,9.364909172,-3.643670797
23.59667922,-1.347159147,9.197412491,-3.485744476
23.60670474,-1.433300734,9.273982048,-3.112463951
23.61673073,-1.280160069,9.431908607,-3.126821041
23.6267576,-1.237089276,9.508479118,-3.227319479
23.63678489,-1.481157184,9.60419178,-3.059821844
23.64681161,-1.82632184,9.690333366,-2.834896564
23.65683797,-2.118246317,9.766903877,-2.776870728
23.6668638,-2.280958176,9.80997467,-2.887538671
23.67689036,-2.194816589,9.747760773,-3.198605776
23.68691661,-1.888535261,9.70468998,-3.457030535
23.69694364,-1.543370605,9.709476471,-3.586242914
23.70697,-1.261017561,9.699904442,-3.715455294
23.71699588,-1.031306505,9.675976753,-3.974478483
23.72702286,-0.830309451,9.766903877,-3.753740549
23.73704911,-1.069591761,9.891330719,-3.667598963
23.74707578,-1.648654819,9.958329201,-3.739383698
23.75710286,-2.05124712,9.93918705,-3.265604734
23.76712906,-2.032104731,10.00139999,-3.007179976
23.77715531,-1.682154298,10.02532864,-3.471387386
23.78718099,-1.160519004,9.709476471,-3.691527128
23.79720677,-0.940379322,9.857831001,-4.395615101
23.80723239,-0.997807026,10.2221384,-3.141177893
23.81725771,-1.141376376,9.76211834,-3.002394199
23.82728375,-1.337587833,9.891330719,-2.877967358
23.83730948,-1.777867198,10.0205431,-3.093321562
23.84733578,-2.271386862,9.958329201,-3.165106058
23.85736192,-2.391027927,9.991828918,-2.935395241
23.86738817,-2.405385017,9.93918705,-3.078964472
23.87741437,-2.324028969,9.80997467,-3.2895329
23.88744021,-2.252244234,9.70468998,-3.155534744
23.89746609,-2.089532375,9.685547829,-3.256033421
23.90749234,-2.041675806,9.714262009,-3.524029493
23.91751828,-2.14696002,9.786046028,-3.3852458
