Time (s),Acceleration x (m/s^2),Acceleration y (m/s^2),Acceleration z (m/s^2),Absolute acceleration (m/s^2)
0.010585367,-1.576870084,9.355338097,-2.293520451,9.76058944
0.013092034,-1.557727575,9.451051712,-2.307877541,9.852674378
0.015598909,-1.509871125,9.460622787,-2.303091764,9.853290111
0.018105472,-1.43808639,9.446265221,-2.288734913,9.82539193
0.020612086,-1.385444283,9.465408325,-2.274377823,9.832914375
0.023118544,-1.356730461,9.503693581,-2.322234392,9.876926738
0.025624899,-1.313659668,9.484550476,-2.293520451,9.845945131
0.028131722,-1.284945726,9.522835732,-2.331805706,9.888013134
0.030638492,-1.29451704,9.556335449,-2.360519648,9.928311769
0.033145263,-1.280160069,9.580264091,-2.398804665,9.958641157
0.035651669,-1.289731383,9.599406242,-2.394019127,9.977140614
0.038158076,-1.280160069,9.637691498,-2.413161755,10.0173478
0.040664638,-1.313659668,9.656833649,-2.408375978,10.0389448
0.043171149,-1.356730461,9.666405678,-2.43708992,10.0607914
0.045677815,-1.428515077,9.671191216,-2.370090723,10.0593203
0.048184638,-1.495514154,9.699904442,-2.34137702,10.08993336
0.050691201,-1.629512191,9.695118904,-2.312663078,10.09945796
0.053197815,-1.725225091,9.714262009,-2.293520451,10.12933976
0.055704378,-1.821536183,9.709476471,-2.279163599,10.13836841
0.058211044,-1.878963947,9.714262009,-2.159522533,10.12723701
0.060717919,-1.993819475,9.719047546,-2.164308071,10.15477379
0.063224586,-2.027318954,9.680762291,-2.082952023,10.10771338
0.065731201,-2.113460541,9.675976753,-2.049452543,10.11392591
0.068237815,-2.127817631,9.685547829,-1.996810555,10.11556706
0.070744638,-2.166102648,9.628120422,-1.977667928,10.06498256
0.073251201,-2.16131711,9.642477036,-1.925025821,10.06749122
0.075757919,-2.108675003,9.594620705,-1.963310957,10.01787635
0.078264586,-2.070389748,9.518050194,-1.963310957,9.936517655
0.080771409,-2.022533417,9.508479118,-2.054238319,9.935880013
0.083278024,-1.974676847,9.465408325,-2.049452543,9.884005218
0.085784378,-1.893320918,9.474979401,-2.059023857,9.879244808
0.088291097,-1.811366796,9.465408325,-2.068595171,9.856677453
0.090797972,-1.749153376,9.474979401,-2.092523336,9.859686916
0.093304794,-1.677368641,9.484550476,-2.10209465,9.858451461
0.095811617,-1.586441398,9.503693581,-2.126022816,9.866963109
0.098318544,-1.524227977,9.546764374,-2.106880426,9.894590748
0.100825315,-1.538584948,9.585049629,-2.221735716,9.958741368
0.10333219,-1.490728498,9.585049629,-2.260020971,9.960077441
0.105839065,-1.47158587,9.647262573,-2.346162558,10.0369178
0.108345836,-1.47158587,9.666405678,-2.389233351,10.06545576
0.110852607,-1.462014675,9.70468998,-2.480160713,10.12273143
0.113359274,-1.495514154,9.738189697,-2.537588358,10.17390072
0.115866044,-1.509871125,9.78126049,-2.547159672,10.21962768
0.118372815,-1.533799291,9.776474953,-2.537588358,10.2162301
0.12087969,-1.543370605,9.805189133,-2.556730986,10.24990732
0.123386565,-1.605584025,9.757332802,-2.513660192,10.20303538
0.125893597,-1.605584025,9.747760773,-2.499303341,10.19035119
0.128400472,-1.663011789,9.685547829,-2.465803623,10.13191159
0.130907347,-1.706082582,9.675976753,-2.461018085,10.12876369
0.133414169,-1.782652855,9.608977318,-2.398804665,10.06302937
0.135921097,-1.835893154,9.580264091,-2.408375978,10.04749912
0.138428024,-1.907677889,9.551549911,-2.374876499,10.02553635
0.140935055,-1.945963025,9.503693581,-2.336591244,9.978307592
0.143442086,-1.993819475,9.470193863,-2.322234392,9.952520308
0.145949065,-2.046461582,9.451051712,-2.317448616,9.943890162
0.148455888,-2.060818434,9.407979965,-2.260020971,9.892661646
0.150963024,-2.14696002,9.417551994,-2.250449657,9.917875103
0.153470003,-2.185245275,9.403194427,-2.283949137,9.920271469
0.155976982,-2.213959217,9.393623352,-2.23130703,9.905579547
0.158483909,-2.266601324,9.42712307,-2.207378864,9.943875119
0.160991044,-2.276172638,9.441479683,-2.250449657,9.969304095
0.163497972,-2.300100803,9.451051712,-2.24566412,9.982777645
0.166004638,-2.29052949,9.498908043,-2.221735716,10.02057328
0.168511357,-2.333600283,9.489336014,-2.164308071,10.00886695
0.171018128,-2.357528448,9.551549911,-2.193022013,10.07965236
0.173524847,-2.357528448,9.580264091,-2.154736757,10.09862817
0.176031617,-2.362314224,9.618548393,-2.140379906,10.13302659
0.178538128,-2.343171597,9.675976753,-2.078166485,10.1702387
0.181044951,-2.371885538,9.656833649,-2.054238319,10.1538255
0.183551774,-2.343171597,9.685547829,-2.063809633,10.17642374
0.186058597,-2.304886341,9.70468998,-2.025524378,10.17822468
0.188565419,-2.29052949,9.709476471,-1.953739643,10.16550822
0.191072138,-2.276172638,9.70468998,-1.929811478,10.15313458
0.193578961,-2.285743713,9.714262009,-1.968096614,10.17177049
0.19608568,-2.209173441,9.685547829,-2.015953064,10.13678207
0.198592347,-2.237887383,9.699904442,-2.025524378,10.15869259
0.201099065,-2.190030813,9.699904442,-2.13559413,10.17079856
0.203605784,-2.151745796,9.671191216,-2.073380709,10.12229505
0.206112242,-2.142174482,9.671191216,-2.250449657,10.15802022
0.208618909,-2.089532375,9.647262573,-2.097309113,10.09130944
0.211125732,-2.056032896,9.637691498,-2.23130703,10.10401404
0.213632347,-2.012962103,9.671191216,-2.169093609,10.11379865
0.216139117,-1.960319996,9.666405678,-2.240878344,10.11453355
0.218645732,-1.950748682,9.671191216,-2.14995122,10.09750713
0.221152555,-1.902892232,9.695118904,-2.207378864,10.12367773
0.223659378,-1.878963947,9.690333366,-2.183450699,10.10942744
0.226166253,-1.878963947,9.699904442,-2.226521492,10.12798349
0.228673024,-1.92203474,9.728618622,-2.14995122,10.14704529
0.231179742,-1.92203474,9.738189697,-2.193022013,10.16542678
0.233686357,-1.955534339,9.747760773,-2.173879385,10.17687114
0.236192867,-1.998605132,9.709476471,-2.188236237,10.15168625
0.23869969,-2.070389748,9.70468998,-2.24566412,10.17401242
0.241206617,-2.113460541,9.671191216,-2.240878344,10.14988624
0.243713336,-2.16131711,9.661619186,-2.240878344,10.15084788
0.246220055,-2.16131711,9.608977318,-2.236092806,10.09969543
0.248726982,-2.223530531,9.618548393,-2.221735716,10.11912401
0.251233805,-2.24267292,9.580264091,-2.164308071,10.07448616
0.253740784,-2.25703001,9.589835167,-2.207378864,10.09612027
0.256247659,-2.223530531,9.537193298,-2.14995122,10.02618742
0.258754742,-2.271386862,9.513264656,-2.14995122,10.0141746
0.261261669,-2.25703001,9.489336014,-2.10209465,9.978000018
0.263768388,-2.266601324,9.522835732,-2.13559413,10.01911394
0.266275055,-2.25703001,9.508479118,-2.092523336,9.994198994
0.268781617,-2.228316069,9.489336014,-2.169093609,9.985882914
0.271288388,-2.24267292,9.494122505,-2.073380709,9.973306951
0.273794899,-2.233101845,9.503693581,-2.19780755,10.00686232
0.276301826,-2.213959217,9.498908043,-2.068595171,9.970454122
0.278808753,-2.190030813,9.498908043,-2.13559413,9.97929112
0.281315524,-2.16131711,9.532406807,-2.039881229,9.984948003
0.283822347,-2.170888424,9.503693581,-2.13559413,9.97966485
0.286329274,-2.151745796,9.494122505,-1.987239242,9.935667663
0.28883594,-2.099103689,9.513264656,-2.087737799,9.9632871
0.291342607,-2.075175524,9.518050194,-1.972882271,9.939411321
0.29384943,-2.113460541,9.522835732,-2.13559413,9.985583514
0.296356201,-2.079961061,9.522835732,-2.015953064,9.953627738
0.298863024,-2.056032896,9.537193298,-2.188236237,9.998685169
0.301369794,-2.046461582,9.513264656,-2.078166485,9.950325892
0.303876461,-2.027318954,9.537193298,-2.183450699,9.991773371
0.306383232,-2.032104731,9.546764374,-2.049452543,9.973485618
0.308890055,-1.974676847,9.546764374,-2.188236237,9.991418142
0.311396826,-1.993819475,9.522835732,-2.011167526,9.935014408
0.313903649,-2.003390789,9.527621269,-2.154736757,9.971561171
0.316410628,-1.965105653,9.508479118,-1.939382792,9.901213107
0.318917399,-1.960319996,9.470193863,-2.059023857,9.887719936
0.321424065,-1.993819475,9.474979401,-1.858026743,9.859148752
0.323930992,-2.022533417,9.446265221,-2.001596212,9.865543849
0.326438076,-2.012962103,9.417551994,-1.853241086,9.806977338
0.328944847,-2.060818434,9.369695663,-2.015953064,9.803174802
0.331451513,-2.06560421,9.369695663,-1.853241086,9.772022314
0.333958024,-2.123031855,9.369695663,-2.00638175,9.814480567
0.336464534,-2.113460541,9.360123634,-1.829312921,9.768572857
0.338971044,-2.127817631,9.336195946,-1.972882271,9.776728853
0.341477607,-2.108675003,9.321838379,-1.771885157,9.720224176
0.343984378,-2.123031855,9.302696228,-1.948953986,9.738883047
0.34649068,-2.094317913,9.321838379,-1.791027784,9.720628519
0.348997294,-2.137388945,9.32662487,-1.953739643,9.76583133
0.351503805,-2.132603168,9.307481766,-1.819741607,9.720528412
0.354010576,-2.108675003,9.336195946,-1.996810555,9.777439205
0.35651719,-2.14696002,9.364909172,-1.886740685,9.791361067
0.359023701,-2.151745796,9.374481201,-2.059023857,9.836182542
0.361530315,-2.151745796,9.431908607,-1.901097536,9.859263755
0.364036982,-2.16131711,9.422337532,-2.030309916,9.877949917
0.36654344,-2.204387903,9.460622787,-1.905883193,9.899247461
0.369050003,-2.156531334,9.484550476,-2.02073884,9.934319835
0.371556565,-2.185245275,9.479764938,-1.896311998,9.911470093
0.374063024,-2.233101845,9.527621269,-2.025524378,9.993250718
0.37656943,-2.209173441,9.508479118,-1.963310957,9.957219107
0.379075992,-2.285743713,9.518050194,-2.087737799,10.00882375
0.381582659,-2.309672117,9.537193298,-2.02073884,10.0187837
0.384089222,-2.347957134,9.541978836,-2.159522533,10.06110334
0.386595836,-2.391027927,9.551549911,-2.10209465,10.06816379
0.389102294,-2.434098721,9.565906525,-2.193022013,10.1114168
0.391609013,-2.462812662,9.565906525,-2.097309113,10.09805523
0.394115576,-2.477169752,9.556335449,-2.183450699,10.11075537
0.396621982,-2.48195529,9.585049629,-2.078166485,10.11691921
0.399128544,-2.510669231,9.551549911,-2.145165443,10.10630004
0.401635367,-2.477169752,9.556335449,-2.078166485,10.08854267
0.404142034,-2.424527645,9.522835732,-2.092523336,10.04695917
0.406648492,-2.414956331,9.522835732,-1.996810555,10.02515171
0.409155159,-2.38624239,9.513264656,-2.092523336,10.02870934
0.411661878,-2.300100803,9.508479118,-2.039881229,9.993135358
0.41416844,-2.247458696,9.494122505,-2.054238319,9.970422649
0.416674951,-2.223530531,9.489336014,-2.039881229,9.95754495
0.419181357,-2.194816589,9.513264656,-2.130808592,9.992986017
0.421687815,-2.151745796,9.532406807,-2.10209465,9.99577868
0.424194326,-2.180459738,9.522835732,-2.097309113,9.991872225
0.426701097,-2.127817631,9.580264091,-2.126022816,10.04136649
0.429207972,-2.118246317,9.5754776,-2.111665964,10.03174321
0.431714638,-2.070389748,9.63290596,-2.145165443,10.08370595
0.43422094,-2.036890268,9.623334885,-2.10209465,10.05864296
0.436727399,-2.022533417,9.656833649,-2.10209465,10.08780846
0.439233597,-2.032104731,9.666405678,-2.10209465,10.09889352
0.441739899,-2.017747641,9.661619186,-2.10209465,10.09143165
0.444246357,-1.993819475,9.628120422,-2.059023857,10.0456756
0.446752815,-1.984248161,9.666405678,-2.140379906,10.09741876
0.449259117,-1.974676847,9.652048111,-2.082952023,10.0697602
0.451765472,-1.907677889,9.652048111,-2.145165443,10.06990578
0.454271826,-1.945963025,9.642477036,-2.10209465,10.05897298
0.456778232,-1.936391711,9.685547829,-2.140379906,10.10646703
0.459284742,-1.945963025,9.70468998,-2.068595171,10.11171922
0.461791305,-1.898106575,9.690333366,-2.11645174,10.09874929
0.464297867,-1.931606054,9.719047546,-2.054238319,10.1198262
0.466804378,-1.941177368,9.747760773,-2.126022816,10.16400426
0.469310836,-1.989033818,9.776474953,-2.011167526,10.1774512
0.471817451,-1.993819475,9.814760208,-2.082952023,10.22954169
0.474324065,-2.032104731,9.80997467,-1.968096614,10.20972365
0.47683068,-2.099103689,9.848259926,-2.097309113,10.28558046
0.479337451,-2.142174482,9.833903313,-1.963310957,10.25422624
0.481844013,-2.132603168,9.857831001,-2.063809633,10.29485981
0.484350628,-2.199602127,9.829116821,-1.905883193,10.25095985
0.486857034,-2.185245275,9.824331284,-2.015953064,10.26434844
0.489363597,-2.228316069,9.79083252,-1.853241086,10.21079314
0.491870419,-2.237887383,9.738189697,-1.987239242,10.18771801
0.49437719,-2.237887383,9.685547829,-1.743171334,10.09240422
0.496883909,-2.276172638,9.652048111,-1.896311998,10.09648423
0.499390472,-2.261815548,9.666405678,-1.704886079,10.07282705
0.501896982,-2.271386862,9.637691498,-1.81495595,10.06669562
0.504403336,-2.266601324,9.613762856,-1.627717614,10.01056354
0.506909951,-2.271386862,9.656833649,-1.805384636,10.08330541
0.509416669,-2.295315027,9.642477036,-1.66600275,10.05094024
0.511923388,-2.247458696,9.63290596,-1.8628124,10.06548647
0.514429899,-2.237887383,9.661619186,-1.656431437,10.05478942
0.516936201,-2.218744755,9.690333366,-1.867598057,10.11500428
0.519442659,-2.209173441,9.714262009,-1.68574357,10.10391335
0.521949117,-2.170888424,9.752547264,-1.925025821,10.17500168
0.524455576,-2.180459738,9.723833084,-1.71924305,10.11252348
0.526962086,-2.108675003,9.714262009,-1.915454507,10.12335728
0.529468701,-2.103889227,9.771689415,-1.71924305,10.14238929
0.531975263,-2.060818434,9.776474953,-1.929811478,10.17598189
0.534481774,-2.036890268,9.766903877,-1.786242127,10.13567927
0.536988336,-1.998605132,9.723833084,-1.972882271,10.12124581
0.539494899,-2.003390789,9.714262009,-1.834098577,10.08684186
0.542001617,-1.979462504,9.709476471,-2.015953064,10.11218433
0.544508388,-1.931606054,9.656833649,-1.834098577,10.01745754
0.547014899,-1.945963025,9.613762856,-2.025524378,10.01568557
0.549521617,-1.912463546,9.589835167,-1.843669891,9.950958447
0.552028388,-1.926820397,9.537193298,-2.00638175,9.934599166
0.554535055,-1.888535261,9.527621269,-1.829312921,9.883750212
0.557041617,-1.898106575,9.508479118,-1.982453585,9.896671457
0.559548492,-1.950748682,9.518050194,-1.886740685,9.897398159
0.562055315,-1.993819475,9.508479118,-1.948953986,9.908830046
0.564562086,-2.012962103,9.508479118,-1.853241086,9.894326359
0.567068909,-2.027318954,9.474979401,-2.015953064,9.896935058
0.569575628,-2.079961061,9.541978836,-1.915454507,9.952113549
0.572082138,-2.118246317,9.522835732,-2.030309916,9.9646137
0.574588857,-2.14696002,9.541978836,-1.877169371,9.959044245
0.57709568,-2.16131711,9.580264091,-1.968096614,10.01629452
0.579602138,-2.190030813,9.618548393,-1.905883193,10.04714382
0.582108701,-2.180459738,9.594620705,-1.987239242,10.03794157
0.584615159,-2.199602127,9.628120422,-1.901097536,10.05749095
0.587121461,-2.25703001,9.628120422,-1.992024899,10.08776737
0.589627867,-2.285743713,9.637691498,-1.920240164,10.08945212
0.59213469,-2.285743713,9.63290596,-1.925025821,10.08579327
0.594641409,-2.29052949,9.618548393,-1.858026743,10.0605796
0.597147972,-2.304886341,9.5754776,-1.896311998,10.02986897
0.599654638,-2.304886341,9.5754776,-1.853241086,10.02181495
0.602161201,-2.324028969,9.589835167,-1.920240164,10.0525306
0.604667867,-2.314457655,9.546764374,-1.810170293,9.988700653
0.607174534,-2.300100803,9.508479118,-1.810170293,9.948786626
0.609681044,-2.314457655,9.484550476,-1.853241086,9.937198523
0.612187763,-2.276172638,9.494122505,-1.91066885,9.948365669
0.614694378,-2.271386862,9.503693581,-1.881955028,9.950936874
0.617200836,-2.247458696,9.494122505,-1.872383714,9.93454848
0.619707399,-2.271386862,9.532406807,-1.867598057,9.975665407
0.622213961,-2.233101845,9.541978836,-1.858026743,9.974385562
0.624720732,-2.252244234,9.532406807,-1.834098577,9.965104175
0.627227347,-2.199602127,9.513264656,-1.853241086,9.938559073
0.629734065,-2.218744755,9.585049629,-1.877169371,10.01597572
0.632240836,-2.175673962,9.594620705,-1.8628124,10.01301022
0.634747347,-2.218744755,9.613762856,-1.834098577,10.03549611
0.637253857,-2.190030813,9.613762856,-1.896311998,10.04075049
0.639760576,-2.16131711,9.618548393,-1.901097536,10.04001677
0.642267399,-2.156531334,9.613762856,-1.795813441,10.01498924
0.644774274,-2.185245275,9.63290596,-1.848455548,10.04912743
0.647281097,-2.213959217,9.60419178,-1.791027784,10.01747951
0.649787711,-2.185245275,9.613762856,-1.901097536,10.04061278
0.65229443,-2.228316069,9.608977318,-1.795813441,10.0261051
0.654801044,-2.252244234,9.623334885,-1.920240164,10.06819252
0.657307711,-2.266601324,9.618548393,-1.824527264,10.04902256
0.65981443,-2.25703001,9.618548393,-1.901097536,10.06105509
0.662321305,-2.24267292,9.637691498,-1.805384636,10.05853334
0.664827711,-2.24267292,9.63290596,-1.891526341,10.06977313
0.667334534,-2.280958176,9.652048111,-1.738385677,10.06910064
0.669841357,-2.266601324,9.647262573,-1.881955028,10.08706654
0.672348128,-2.247458696,9.623334885,-1.752742529,10.03652087
0.674855003,-2.223530531,9.60419178,-1.843669891,10.02914286
0.677362086,-2.218744755,9.608977318,-1.675574064,10.0031406
0.679869222,-2.180459738,9.599406242,-1.800599098,10.00725547
0.682376097,-2.14696002,9.570692062,-1.632503271,9.943472774
0.684883232,-2.070389748,9.532406807,-1.704886079,9.902521385
0.687390315,-2.003390789,9.484550476,-1.594218135,9.824042134
0.689897138,-1.936391711,9.460622787,-1.714457393,9.807770416
0.692403909,-1.835893154,9.451051712,-1.484148264,9.741436147
0.694910628,-1.797009826,9.45583725,-1.632503271,9.762539083
0.697417347,-1.701296926,9.407979965,-1.488933921,9.675816373
0.699923961,-1.667797327,9.388837814,-1.589432478,9.667373947
0.702430628,-1.615155339,9.388837814,-1.445863128,9.635845705
0.704937347,-1.600798368,9.412766457,-1.627717614,9.685669436
0.707444222,-1.567298889,9.407979965,-1.555932879,9.663717709
0.709951149,-1.548156261,9.422337532,-1.575075507,9.67771126
0.712457867,-1.572084427,9.446265221,-1.546361685,9.700237653
0.714964638,-1.533799291,9.474979401,-1.555932879,9.723615687
0.717471253,-1.552941918,9.460622787,-1.493719578,9.702897006
0.719977763,-1.591227055,9.532406807,-1.445863128,9.771862835
0.72248443,-1.576870084,9.527621269,-1.393221021,9.757210212
0.724991253,-1.605584025,9.5754776,-1.383649707,9.807250269
0.727498128,-1.610369682,9.623334885,-1.412363529,9.858835406
0.730005055,-1.605584025,9.628120422,-1.484148264,9.873261822
0.732511878,-1.567298889,9.628120422,-1.484148264,9.867108226
0.735018701,-1.600798368,9.647262573,-1.60378933,9.909811844
0.737525263,-1.586441398,9.666405678,-1.627717614,9.930038251
0.740032034,-1.567298889,9.680762291,-1.680359721,9.94973332
0.742538909,-1.529013634,9.680762291,-1.68574357,9.944685647
0.745045732,-1.505085468,9.671191216,-1.661217093,9.927580976
0.747552347,-1.495514154,9.675976753,-1.613360643,9.922903873
0.750058961,-1.462014675,9.666405678,-1.546361685,9.897884627
0.752565419,-1.42372942,9.661619186,-1.488933921,9.878806354
0.755072034,-1.37587297,9.661619186,-1.555932879,9.882349865
0.757578701,-1.361516118,9.666405678,-1.656431437,9.901357986
0.760085524,-1.323230863,9.685547829,-1.7670995,9.933952753
0.762592399,-1.337587833,9.699904442,-1.896311998,9.973629559
0.765099169,-1.332802176,9.723833084,-1.948953986,10.00638362
0.767605732,-1.418943882,9.752547264,-1.953739643,10.04702336
0.770112503,-1.47158587,9.800403595,-2.035095692,10.11706924
0.772619274,-1.548156261,9.776474953,-2.097309113,10.11805099
0.775126149,-1.634297848,9.829116821,-2.173879385,10.19844197
0.777633024,-1.744367719,9.83868885,-2.178664923,10.22688603
0.780139742,-1.831107497,9.876974106,-2.236092806,10.29114586
0.782646409,-1.979462504,9.900901794,-2.178664923,10.32921628
0.785153128,-2.05124712,9.896116257,-2.130808592,10.3286532
0.787659899,-2.142174482,9.953543663,-2.063809633,10.38851545
0.790166722,-2.213959217,9.929615974,-1.996810555,10.36755232
0.792673649,-2.285743713,9.920044899,-1.996810555,10.37396585
0.795180524,-2.333600283,9.881759644,-2.00638175,10.34990008
0.79768719,-2.33838582,9.881759644,-2.025524378,10.35470767
0.800193961,-2.35274291,9.867402077,-2.039881229,10.34708357
0.80270068,-2.395813704,9.857831001,-2.068595171,10.35354245
0.805207242,-2.391027927,9.824331284,-2.059023857,10.31862777
0.807713857,-2.357528448,9.814760208,-2.059023857,10.30179778
0.810220524,-2.371885538,9.795618057,-2.015953064,10.2783287
0.812727294,-2.381456852,9.800403595,-1.915454507,10.26587616
0.815233961,-2.381456852,9.867402077,-1.905883193,10.32808555
0.817740472,-2.367099762,9.862616539,-1.834098577,10.30719573
0.820246878,-2.35274291,9.929615974,-1.700100541,10.34519282
0.822753388,-2.35274291,9.977472305,-1.551147223,10.36780645
0.825260263,-2.33838582,10.00618649,-1.407577872,10.37174487
0.82776693,-2.357528448,10.06361389,-1.3310076,10.42141287
0.830273544,-2.367099762,10.05404282,-1.311864972,10.41191279
0.832780472,-2.357528448,10.03011417,-1.340578914,10.39029752
0.835287294,-2.300100803,10.02532864,-1.374078393,10.37717541
0.837794013,-2.319243431,9.977472305,-1.493719578,10.35181346
0.840300576,-2.25703001,9.977472305,-1.680359721,10.36666518
0.842807503,-2.233101845,9.963115692,-1.824527264,10.37204502
0.845314482,-2.209173441,9.953543663,-1.929811478,10.37678424
0.847821409,-2.180459738,9.920044899,-2.025524378,10.35685495
0.850328232,-2.108675003,9.991828918,-2.02073884,10.40992511
0.852834951,-2.036890268,10.04447079,-1.929811478,10.42902142
0.855341722,-2.003390789,10.05404282,-1.829312921,10.41363228
0.857848492,-1.917249203,10.05404282,-1.656431437,10.36838399
0.860355107,-1.845464468,10.11147022,-1.498505235,10.38715972
0.862861982,-1.816152334,10.14496994,-1.402792215,10.40128119
0.865368701,-1.734796405,10.20718288,-1.445863128,10.45402416
0.867875211,-1.720439434,10.24128056,-1.508076429,10.49371401
0.87038193,-1.615155339,10.30827999,-1.589432478,10.55441418
0.87288844,-1.572084427,10.29870892,-1.594218135,10.53927826
0.875395159,-1.462014675,10.30827999,-1.627717614,10.53791193
0.877901878,-1.37587297,10.30349445,-1.584646821,10.51504303
0.880408597,-1.265803218,10.29392338,-1.541576028,10.48539808
0.882915211,-1.189232826,10.28913784,-1.407577872,10.45284209
0.885421826,-1.002592683,10.24606609,-1.297508121,10.37644399
0.88792844,-0.8494520187,10.2221384,-1.20179522,10.32753572
0.890435107,-0.7345965505,10.20718288,-1.206580877,10.30446757
0.892941826,-0.6334998012,10.19282627,-1.24965167,10.28866652
0.895448701,-0.4755735099,10.21196842,-1.345364571,10.31118204
0.897955419,-0.3224328458,10.21196842,-1.431506157,10.31685378
0.900462086,-0.1645065546,10.27478027,-1.493719578,10.38409217
0.902968597,-0.06400800496,10.33220863,-1.512862086,10.44257554
0.905475211,0.08434699476,10.47577763,-1.398006678,10.56898547
0.907982034,0.1992024779,10.66720295,-1.340578914,10.75295551
0.910489013,0.314057976,10.84427261,-1.287936807,10.9250017
0.912995888,0.3571287692,11.04048347,-1.383649707,11.13257844
0.915502503,0.4295116663,11.23669529,-1.565504193,11.35335213
0.918009222,0.5252245665,11.37129116,-1.752742529,11.5175618
0.920515888,0.6161518097,11.495718,-1.996810555,11.68411006
0.923022659,0.6544370055,11.57707405,-2.183450699,11.79933847
0.925529378,0.7262216806,11.58664513,-2.221735716,11.82006146
0.928036253,0.7597211599,11.60578823,-2.255235434,11.84726059
0.930543076,0.8123632669,11.56750298,-2.202593327,11.80332481
0.93304969,0.7836494446,11.47657585,-2.035095692,11.6819311
0.935556357,0.7932206988,11.3952198,-1.905883193,11.5807005
0.938062919,0.7357929349,11.29890823,-1.7670995,11.45990223
0.940569847,0.6400800347,11.21276665,-1.728814363,11.36330222
0.943076774,0.5443671346,11.09791183,-1.704886079,11.24129082
0.945583597,0.4390829504,10.98305607,-1.848455548,11.14616985
0.948090315,0.3571287692,10.89212894,-1.948953986,11.07088233
0.950597347,0.2231307179,10.82034397,-2.087737799,11.0221722
0.953104222,0.1369891018,10.79162979,-2.207378864,11.01592307
0.955611201,0.03170489892,10.75813103,-2.288734913,10.99894067
0.958118128,-0.05443671346,10.74377346,-2.336591244,10.99505753
0.960624794,-0.1597209126,10.76291656,-2.379662037,11.0240045
0.963131409,-0.2745763958,10.79162979,-2.370090723,11.0522394
0.965638076,-0.3655036688,10.82991505,-2.398804665,11.09841956
0.968144794,-0.5186443329,10.8682003,-2.42273283,11.14703567
0.970651409,-0.6334998012,10.94477081,-2.51844573,11.24863988
0.97315818,-0.8398807645,11.01655579,-2.604587555,11.35137778
0.975665003,-0.993021369,11.06441212,-2.805584431,11.45768785
0.978171774,-1.194018483,11.09791183,-2.997608662,11.55746447
0.980678388,-1.385444283,11.16969585,-3.208176851,11.70358749
0.983185263,-1.581655741,11.18405342,-3.260818958,11.75659926
0.985691878,-1.749153376,11.1936245,-3.222533941,11.77885784
0.988198544,-1.883749604,11.21276665,-3.107678413,11.78695523
0.990705472,-2.017747641,11.18883896,-2.983251572,11.75419979
0.993212294,-2.180459738,11.15533924,-2.930609465,11.73816298
0.995719169,-2.285743713,11.12183952,-2.901895761,11.719255
0.998226044,-2.38624239,11.08355427,-2.983251572,11.72344309
1.000732607,-2.491526604,11.00219822,-3.131606579,11.70739212
1.003239222,-2.639881611,10.95912743,-3.279961586,11.74008505
1.005745732,-2.730808735,10.91605663,-3.375674486,11.74788436
1.008252659,-2.836092949,10.80120182,-3.500101328,11.70299506
1.010759274,-2.893520832,10.71506023,-3.552743435,11.65362452
1.013266044,-2.999403238,10.63848972,-3.49531579,11.59271823
1.015772867,-3.066402197,10.57627583,-3.461816072,11.54316262
1.018279586,-3.152543783,10.51884842,-3.457030535,11.51241784
1.020786357,-3.238685369,10.4279213,-3.524029493,11.47385765
1.02329318,-3.391826153,10.41356373,-3.4809587,11.49190444
1.025800159,-3.387040377,10.3848505,-3.428316593,11.44860328
1.028307086,-3.410968781,10.43749237,-3.198605776,11.43709027
1.030814065,-3.377469063,10.4279213,-2.901895761,11.33886409
1.03332094,-3.377469063,10.41835022,-2.62851572,11.26314403
1.035827763,-3.372683525,10.43270683,-2.523231506,11.25091389
1.038334638,-3.382254839,10.43749237,-2.575873613,11.2701384
1.040841409,-3.396611691,10.40399265,-2.705085993,11.27375378
1.04334844,-3.324826956,10.34177971,-2.767299414,11.21003247
1.045855367,-3.281756163,10.24128056,-2.752942562,11.10101093
1.048362347,-3.238685369,10.09711361,-2.690729141,10.93987246
1.050869222,-3.214757204,9.924830437,-2.599801779,10.75155302
1.053376097,-3.190829039,9.714262009,-2.580659151,10.54552407
1.055883076,-3.195614576,9.522835732,-2.633301258,10.38415275
1.058390107,-3.272184849,9.273982048,-2.839682341,10.23609948
1.060896982,-3.358326674,9.081958771,-2.868396044,10.09891227
1.063403805,-3.44446826,8.857032776,-2.844467878,9.919797815
1.065910472,-3.54018116,8.69910717,-2.657229662,9.760543923
1.06841719,-3.63589406,8.584251404,-2.403590441,9.627374761
1.070923909,-3.736392498,8.459824562,-2.092523336,9.481978403
1.07343068,-3.889533281,8.378468513,-1.738385677,9.399424905
1.075937503,-4.004388809,8.330612183,-1.551147223,9.37231491
1.078444169,-4.148556232,8.311469078,-1.508076429,9.410915554
1.080950732,-4.28255415,8.268398285,-1.532004714,9.436827787
1.083457347,-4.34476757,8.273183823,-1.565504193,9.474881487
1.085964222,-4.37348175,8.273183823,-1.670788407,9.506021622
1.088470888,-4.426123619,8.258827209,-1.757528186,9.533504208
1.090977867,-4.330410957,8.254041672,-1.762313843,9.486169567
1.093484638,-4.215555191,8.201399803,-1.81495595,9.398293962
1.095991305,-4.067200184,8.187042236,-1.762313843,9.30996928
1.098498232,-3.908675671,8.220541954,-1.709671736,9.261643103
1.101005211,-3.73160696,8.196614265,-1.656431437,9.157136071
1.103512138,-3.583251953,8.172685623,-1.622931957,9.070082304
1.106019013,-3.415754318,8.153543472,-1.579861164,8.98017873
1.10852568,-3.248256683,8.124829292,-1.646860242,8.903716705
1.111032555,-3.075973511,8.120043755,-1.670788407,8.842412426
1.113539326,-2.931805849,8.076972961,-1.771885157,8.773400411
1.116046044,-2.826521635,8.057829857,-1.795813441,8.725983754
1.118552815,-2.711666346,8.005187988,-1.819741607,8.645671091
1.121059534,-2.615953445,7.990831375,-1.829312921,8.604823313
1.123566305,-2.548954248,7.937591076,-1.886740685,8.5476494
1.126073076,-2.501097918,7.904091358,-1.929811478,8.512010534
1.128579534,-2.453241348,7.880163193,-2.00638175,8.493581858
1.131086044,-2.410170555,7.841877937,-1.968096614,8.436668535
1.133592607,-2.400599241,7.813164234,-1.9585253,8.405012398
1.136099117,-2.391027927,7.746165276,-1.886740685,8.323453696
1.138605472,-2.414956331,7.731808186,-1.896311998,8.319186925
1.141112294,-2.434098721,7.674380302,-1.877169371,8.267086213
1.143619013,-2.48195529,7.655237675,-1.905883193,8.270136436
1.146125784,-2.553740025,7.616952896,-1.881955028,8.251140179
1.148632711,-2.568096876,7.607381344,-1.881955028,8.246764651
1.15113969,-2.592025042,7.597810268,-1.834098577,8.234636135
1.153646253,-2.625524759,7.569096088,-1.8628124,8.225245643
1.156152867,-2.697309256,7.530810833,-1.901097536,8.222089811
1.158659586,-2.730808735,7.51645422,-1.877169371,8.214509433
1.161166409,-2.807379246,7.526025295,-1.896311998,8.253389253
1.163672972,-2.869592667,7.506882668,-1.8628124,8.249722389
1.16617969,-2.922234535,7.478168964,-1.934597135,8.258639828
1.168686409,-3.004188776,7.511668682,-1.948953986,8.321582676
1.171192919,-3.018545866,7.535596848,-1.953739643,8.349487265
1.173699638,-3.075973511,7.564310551,-1.992024899,8.405270391
1.176206513,-3.090330362,7.559525013,-2.00638175,8.409644933
1.178713336,-3.138186932,7.616952896,-2.059023857,8.491511519
1.181220159,-3.147758245,7.67916584,-2.063809633,8.552033686
1.183726774,-3.171686411,7.727022648,-2.063809633,8.603823795
1.186233388,-3.229114056,7.794021606,-2.10209465,8.694409256
1.188740159,-3.276970625,7.875377655,-2.106880426,8.786299267
1.191246669,-3.286541939,7.961519241,-2.173879385,8.883293203
1.193753336,-3.367897987,8.019545555,-2.226521492,8.978487942
1.196260211,-3.367897987,8.096115112,-2.264806747,9.056443362
1.19876693,-3.43011117,8.182256699,-2.360519648,9.180797369
1.201273649,-3.439682484,8.249256134,-2.379662037,9.249023395
1.203780211,-3.530609846,8.316255569,-2.43708992,9.35760225
1.20628693,-3.578466177,8.402397156,-2.446661234,9.454726296
1.208793909,-3.578466177,8.459824562,-2.494517565,9.518228285
1.211300732,-3.616751432,8.517251968,-2.494517565,9.583688742
1.213807399,-3.664607763,8.584251404,-2.465803623,9.653958242
1.216314274,-3.616751432,8.61296463,-2.413161755,9.648181191
1.218821149,-3.645465374,8.665607452,-2.427518606,9.70953227
1.221327867,-3.645465374,8.67039299,-2.32701993,9.689177166
1.223834534,-3.683750391,8.742177963,-2.370090723,9.778191168
1.226341305,-3.674179077,8.775676727,-2.312663078,9.79083778
1.228847972,-3.688536167,8.775676727,-2.34137702,9.803052965
1.231354899,-3.631108284,8.81874752,-2.307877541,9.812316441
1.233861878,-3.688536167,8.833105087,-2.32701993,9.851094675
1.236368857,-3.645465374,8.861818314,-2.336591244,9.863108042
1.238875836,-3.645465374,8.900103569,-2.293520451,9.887441398
1.241382659,-3.640679598,8.938388824,-2.379662037,9.940429272
1.24388969,-3.664607763,8.97667408,-2.446661234,9.999808938
1.246396305,-3.650250912,9.043673515,-2.494517565,10.06652772
1.248903128,-3.63589406,9.125627518,-2.556730986,10.15055055
1.251409847,-3.616751432,9.173483849,-2.53280282,10.18080483
1.253916461,-3.631108284,9.254839897,-2.51844573,10.25570952
1.256423076,-3.573680639,9.331410408,-2.470589399,10.29321259
1.258929742,-3.559323788,9.422337532,-2.461018085,10.36850232
1.261436513,-3.54018116,9.451051712,-2.484946251,10.39375866
1.263943336,-3.549752474,9.518050194,-2.484946251,10.45796252
1.266450055,-3.492324591,9.556335449,-2.508874655,10.47923329
1.268956565,-3.468396425,9.5754776,-2.542374134,10.4968191
1.271463128,-3.406183004,9.570692062,-2.547159672,10.47321592
1.273969899,-3.33439827,9.585049629,-2.494517565,10.45055052
1.276476565,-3.296113253,9.570692062,-2.465803623,10.41838263
1.278983128,-3.257827997,9.585049629,-2.43708992,10.4127819
1.281489899,-3.200400352,9.570692062,-2.446661234,10.38397131
1.283996565,-3.224328518,9.532406807,-2.43708992,10.35386311
1.286503024,-3.181257725,9.503693581,-2.446661234,10.31633382
1.28900969,-3.238685369,9.494122505,-2.451446772,10.32652102
1.291516565,-3.238685369,9.503693581,-2.456232548,10.33645746
1.294023388,-3.253042459,9.460622787,-2.456232548,10.3013954
1.296530159,-3.329612732,9.494122505,-2.432304144,10.35088337
1.29903693,-3.324826956,9.465408325,-2.408375978,10.31739812
1.301543492,-3.343969584,9.460622787,-2.379662037,10.31253158
1.304049899,-3.353540897,9.474979401,-2.355733871,10.32332084
1.306556461,-3.387040377,9.494122505,-2.331805706,10.34638693
1.309063024,-3.367897987,9.498908043,-2.250449657,10.32649575
1.311569586,-3.377469063,9.518050194,-2.32701993,10.36414968
1.314076409,-3.339184046,9.570692062,-2.365305185,10.40879269
1.31658318,-3.31525588,9.613762856,-2.413161755,10.45173227
1.319089951,-3.272184849,9.642477036,-2.394019127,10.46020481
1.321596774,-3.229114056,9.699904442,-2.398804665,10.5009327
1.324103597,-3.181257725,9.73340416,-2.451446772,10.52944199
1.326610524,-3.133401155,9.766903877,-2.489732027,10.55506417
1.329117347,-3.071187973,9.771689415,-2.566302299,10.55954625
1.331624117,-3.004188776,9.829116821,-2.566302299,10.59351666
1.33413094,-2.922234535,9.824331284,-2.61415863,10.57784313
1.336637711,-2.836092949,9.819545746,-2.609373093,10.54873119
1.339144378,-2.764308453,9.800403595,-2.604587555,10.51062264
1.341651097,-2.702095032,9.776474953,-2.604587555,10.4720894
1.344157919,-2.649452925,9.723833084,-2.724228621,10.44001687
1.346664794,-2.572882652,9.685547829,-2.805584431,10.40677019
1.349171409,-2.529811859,9.613762856,-2.887538671,10.35192078
1.351678128,-2.448455811,9.5754776,-2.87318182,10.29271009
1.35418469,-2.35274291,9.503693581,-2.830111027,10.19142381
1.356691565,-2.24267292,9.470193863,-2.743371248,10.11139157
1.359198649,-2.16131711,9.417551994,-2.700300455,10.03260683
1.361705419,-2.075175524,9.360123634,-2.6620152,9.950105167
1.364212399,-2.012962103,9.350552559,-2.685943365,9.934744151
1.366719274,-1.965105653,9.340981483,-2.762513638,9.937155373
1.369226044,-1.869392633,9.369695663,-2.892324448,9.982553098
1.371732399,-1.801795483,9.417551994,-3.011965513,10.05030789
1.374238961,-1.773081541,9.460622787,-3.184248686,10.13837469
1.376745576,-1.667797327,9.537193298,-3.246462107,10.21171485
1.379252242,-1.576870084,9.695118904,-3.246462107,10.34511315
1.381758857,-1.462014675,9.766903877,-3.222533941,10.38819634
1.384265576,-1.29451704,9.905687332,-3.040679455,10.44242057
1.38677219,-1.15094769,10.03011417,-2.882753134,10.49943506
1.389278857,-0.9786644578,10.12582684,-2.695514679,10.5240654
1.391785576,-0.8685946465,10.28913784,-2.523231506,10.62955838
1.394292034,-0.7106683254,10.31785107,-2.408375978,10.61901007
1.396798753,-0.614357233,10.38963604,-2.403590441,10.68172359
1.399305107,-0.5808576941,10.40399265,-2.456232548,10.70577121
1.401811617,-0.5042873621,10.39442158,-2.551945448,10.71497696
1.40431844,-0.5712863803,10.35613632,-2.671586514,10.7104296
1.406825107,-0.561715126,10.30827999,-2.786442041,10.69300797
1.40933193,-0.6000002623,10.21196842,-2.882753134,10.62800852
1.411838492,-0.6622136831,10.09711361,-2.916252613,10.53065808
1.414344899,-0.8015955687,10.01575756,-3.021536827,10.49226571
1.416851357,-0.9116654396,9.934401512,-3.040679455,10.42924728
1.419357711,-1.083948612,9.848259926,-3.045464993,10.36523155
1.421864378,-1.237089276,9.766903877,-3.007179976,10.29397555
1.424371201,-1.414158225,9.675976753,-2.954537868,10.2153641
1.426877815,-1.552941918,9.585049629,-2.854039192,10.12078775
1.429384534,-1.653440475,9.503693581,-2.724228621,10.02374574
1.431891253,-1.753939033,9.42712307,-2.528017044,9.916542829
1.434397763,-1.763510346,9.317052841,-2.322234392,9.762695066
1.43690443,-1.787438512,9.206983566,-2.164308071,9.625368162
1.439411201,-1.782652855,9.116056442,-2.015953064,9.504967281
1.441917919,-1.782652855,9.010173798,-1.987239242,9.397350843
1.444424378,-1.753939033,8.895318031,-2.078166485,9.301707421
1.446931149,-1.677368641,8.81874752,-2.183450699,9.238578372
1.449437867,-1.615155339,8.713463783,-2.331805706,9.163541658
1.451944586,-1.552941918,8.636893272,-2.489732027,9.121749808
1.454451097,-1.418943882,8.579465866,-2.657229662,9.092937136
1.456957815,-1.284945726,8.531609535,-2.733799934,9.050586106
1.459464378,-1.179661512,8.560322762,-2.748156786,9.06769501
1.461971149,-1.079162955,8.531609535,-2.666800737,9.003598176
1.464477815,-1.012163997,8.579465866,-2.575873613,9.014811999
1.466984482,-0.9260223508,8.603393555,-2.537588358,9.017497032
1.469491149,-0.8829515576,8.656036377,-2.384447813,9.021760393
1.471997763,-0.8542376757,8.689535141,-2.331805706,9.037425564
1.47450443,-0.8877372146,8.703892708,-2.202593327,9.022042063
1.477011097,-0.9260223508,8.742177963,-2.164308071,9.05358616
1.479517659,-0.9355936646,8.775676727,-2.044667006,9.059166666
1.482024274,-0.993021369,8.732605934,-1.968096614,9.006547736
1.484531097,-1.064806104,8.679964066,-1.848455548,8.938253528
1.487037867,-1.127019525,8.64167881,-1.786242127,8.896035443
1.489544586,-1.165304661,8.555537224,-1.579861164,8.777876363
1.492051409,-1.222732425,8.536395073,-1.354935765,8.729316488
1.49455818,-1.232303619,8.502895355,-1.182652593,8.672742864
1.497065055,-1.275374413,8.560322762,-0.9816554785,8.710301553
1.499571826,-1.232303619,8.675178528,-0.72323066,8.792062175
1.502078597,-1.10309124,8.943174362,-0.3062812984,9.016151407
1.504585263,-0.7728816867,9.32662487,0.3828516304,9.366421566
1.507091982,-0.3846462369,9.91047287,1.407577872,10.01732004
1.509598649,0.1896311939,10.68156052,2.657229662,11.00874945
1.512105472,0.6640082598,11.61535931,3.777668715,12.23226307
1.514612242,1.094716311,12.72622681,4.515256405,13.54779661
1.517118961,1.51106751,14.0045929,4.716253281,14.85446035
1.519625836,1.932802439,15.31645775,4.400400639,16.05282309
1.522132867,2.435295343,16.57567978,3.701098442,17.15756257
1.524639742,3.058027267,17.62912178,2.868396044,18.1208488
1.527146513,3.780659676,18.39063644,2.183450699,18.9017553
1.529653336,4.551746845,18.72084618,1.632503271,19.3352928
1.532160003,5.207978249,18.62991905,1.086939692,19.37468346
1.534666513,5.700900078,18.22792435,0.4307080805,19.10348128
1.537173024,5.983253002,17.36590958,-0.2440679073,18.36936855
1.53967969,6.031109333,16.25504303,-0.9481559992,17.36374682
1.542186409,5.854040623,15.00060558,-1.354935765,16.1593258
1.544693076,5.600401402,13.55892944,-1.532004714,14.74978312
1.547199847,5.294120312,12.160923,-1.560718536,13.35483435
1.549706565,4.905884743,10.78205872,-1.599003673,11.95312963
1.552213232,4.451248169,9.484550476,-1.724028707,10.61803103
1.554719586,3.891327858,8.354539871,-2.025524378,9.436287298
1.557226044,3.220739365,7.382455826,-2.595016241,8.462146617
1.559732763,2.454437733,6.635297298,-3.323032379,7.81626375
1.562239482,1.583450437,6.051448345,-4.199403763,7.5340782
1.564746201,0.6065805554,5.620141983,-5.123631477,7.629255232
1.567252867,-0.537786901,5.28514719,-6.042475224,8.045713293
1.569759638,-1.792224169,5.084149837,-6.866204739,8.72957127
1.572266149,-3.142972469,5.036293507,-7.532007694,9.590290305
1.574772815,-4.560121536,5.088935375,-7.934001446,10.47092883
1.577279586,-5.97727108,5.347360611,-8.106285095,11.40324047
1.579786461,-7.509873867,5.706283569,-7.852645874,12.27289391
1.582293232,-9.061020851,6.257231236,-7.220342159,13.16770225
1.584799794,-10.51645565,6.942176819,-6.306283951,14.09109207
1.587306409,-11.88096237,7.770093441,-5.166702271,15.1071649
1.589813076,-13.07857037,8.632107735,-3.89730978,16.14779583
1.592319951,-13.9543438,9.407979965,-2.705085993,17.04556505
1.594826617,-14.38564968,9.977472305,-1.632503271,17.58300137
1.597333388,-14.38086414,10.33220863,-0.747158885,17.72348823
1.599840159,-13.89691544,10.35135078,-0.1052841991,17.32875663
1.60234693,-13.14078331,10.18804073,0.1292124242,16.62808034
1.604853649,-12.10170078,9.905687332,0.0239282269,15.63887387
1.607360524,-10.8999052,9.585049629,-0.4642075896,14.52227939
1.609867347,-9.693324089,9.283554077,-1.307079315,13.4853018
1.612374169,-8.582456589,9.081958771,-2.312663078,12.70783013
1.614880888,-7.418348312,8.957531929,-3.241676569,12.07384516
1.617387607,-6.293123722,8.933603287,-3.849453449,11.58580881
1.619894326,-5.163113117,8.981459618,-4.14197588,11.1570748
1.622401097,-4.013959885,9.144769669,-4.118047714,10.80263872
1.624907867,-2.874378204,9.336195946,-3.849453449,10.49975698
1.62741469,-1.734796405,9.532406807,-3.5766716,10.32806264
1.629921617,-0.6191428304,9.800403595,-3.308675528,10.36236374
1.632428492,0.5060819983,10.03968525,-3.141177893,10.53178036
1.634935419,1.573879123,10.28913784,-3.031108141,10.84117473
1.637442294,2.559721947,10.49970531,-3.026322365,11.22295038
1.639948909,3.503092289,10.72463131,-3.112463951,11.70370899
1.64245568,4.322035789,10.87777138,-3.284747362,12.15711597
1.644962555,5.011766911,11.00698376,-3.423531055,12.5694894
1.647469534,5.533402443,11.06441212,-3.5766716,12.87759053
1.649976253,5.911468506,11.09791183,-3.70588398,13.10887802
1.652483024,6.10349226,11.08355427,-3.811168194,13.21449189
1.65498969,6.175277233,11.01177025,-3.830310822,13.19334733
1.657496513,6.11784935,10.94955635,-3.863810301,13.12440075
1.660003388,5.85882616,10.79162979,-3.782454491,12.84881627
1.662510159,5.408975601,10.65763187,-3.729812384,12.52012918
1.665016982,4.881956577,10.45184898,-3.681955814,12.1091472
1.667523388,4.188037872,10.23649502,-3.729812384,11.67206031
1.670029847,3.440878868,10.04447079,-3.777668715,11.26950849
1.672536409,2.550150633,9.857831001,-3.916452408,10.90956918
1.675043076,1.717448473,9.671191216,-4.137190342,10.65823216
1.677549742,0.7836494446,9.537193298,-4.309473515,10.49493804
1.680056669,-0.09750752151,9.331410408,-4.529613495,10.37314448
1.682563649,-0.9403793216,9.163912773,-4.65403986,10.32093492
1.685070315,-1.710868239,8.995817184,-4.663611412,10.27623804
1.687577034,-2.448455811,8.837890625,-4.610969067,10.26471053
1.690083753,-3.042474031,8.651249886,-4.520041943,10.22406729
1.692590784,-3.559323788,8.541180611,-4.467400074,10.27512606
1.695097555,-3.951746702,8.397610664,-4.505684853,10.31684849
1.697604326,-4.234697819,8.292326927,-4.591826439,10.38172536
1.700110992,-4.426123619,8.234899521,-4.591826439,10.4158058
1.702617711,-4.493122578,8.239685059,-4.467400074,10.39414373
1.705124274,-4.478765965,8.292326927,-4.232903481,10.33148113
1.707631201,-4.406980991,8.426324844,-3.93140769,10.28982013
1.710138024,-4.287340164,8.579465866,-3.681955814,10.27352514
1.712644742,-4.124628067,8.790034294,-3.567100286,10.3441512
1.715151253,-3.961317778,8.995817184,-3.514458179,10.43878257
1.717657972,-3.832105398,9.235696793,-3.543172121,10.608355
1.720164586,-3.698107481,9.484550476,-3.59102869,10.79482208
1.722671149,-3.516252756,9.699904442,-3.725026608,10.96941215
1.725177815,-3.387040377,9.848259926,-3.725026608,11.0605646
1.727684794,-3.20518589,9.963115692,-3.70588398,11.1027234
1.730191565,-3.01376009,10.05404282,-3.595814228,11.09488201
1.732698336,-2.749951363,10.06361389,-3.447459221,10.98742609
1.735204899,-2.496312141,10.06361389,-3.375674486,10.90426876
1.737711409,-2.25703001,10.03011417,-3.2895329,10.79436897
1.740217919,-1.965105653,9.996614456,-3.260818958,10.69705011
1.742724586,-1.720439434,9.958329201,-3.270390272,10.62184941
1.745231253,-1.514656782,9.915258408,-3.260818958,10.5470126
1.747738076,-1.289731383,9.891330719,-3.246462107,10.49005942
1.750244847,-1.064806104,9.829116821,-3.232105255,10.40153133
1.752751513,-0.8829515576,9.776474953,-3.16032052,10.31245324
1.755258076,-0.7202396393,9.752547264,-3.145963669,10.27268274
1.757764794,-0.566500783,9.747760773,-3.112463951,10.24827766
1.760271669,-0.4229314029,9.757332802,-3.112463951,10.2504559
1.762778388,-0.3702892959,9.719047546,-3.131606579,10.21782556
1.765285055,-0.3032902777,9.728618622,-3.174677372,10.23799696
1.767791565,-0.3032902777,9.738189697,-3.232105255,10.26502937
1.770298336,-0.2650051117,9.742975235,-3.270390272,10.28062482
1.772805315,-0.3128615618,9.766903877,-3.342175007,10.32765353
1.775312138,-0.3607180119,9.78126049,-3.351746321,10.34588699
1.777818909,-0.4516452849,9.76211834,-3.428316593,10.35646139
1.780325628,-0.5425725579,9.79083252,-3.500101328,10.41179599
1.782832242,-0.6191428304,9.795618057,-3.557528973,10.43999441
1.785339065,-0.7154539824,9.771689415,-3.605385542,10.44014336
1.787845888,-0.8542376757,9.76211834,-3.672384501,10.4649455
1.790352399,-0.9403793216,9.719047546,-3.634099483,10.41877524
1.792859065,-1.05523479,9.671191216,-3.629313707,10.38351472
1.795365836,-1.117448211,9.647262573,-3.519243956,10.3297359
1.797872607,-1.251446247,9.599406242,-3.409173965,10.26339052
1.800379326,-1.318445325,9.5754776,-3.323032379,10.22108671
1.802886149,-1.418943882,9.561120987,-3.308675528,10.21644606
1.805393128,-1.524227977,9.474979401,-3.342175007,10.16211786
1.807900055,-1.634297848,9.422337532,-3.351746321,10.13338924
1.810407034,-1.701296926,9.45583725,-3.327818155,10.16767638
1.812913753,-1.758724689,9.465408325,-3.232105255,10.15547004
1.81542068,-1.777867198,9.446265221,-3.19382,10.12883135
1.817927399,-1.773081541,9.460622787,-3.16032052,10.13088483
1.820434065,-1.753939033,9.431908607,-3.212962627,10.11732825
1.822940732,-1.725225091,9.45583725,-3.212962627,10.13471206
1.825447451,-1.653440475,9.451051712,-3.236890793,10.12589284
1.827954326,-1.581655741,9.494122505,-3.275176048,10.16694522
1.830461201,-1.457229018,9.513264656,-3.222533941,10.14940618
1.832968024,-1.356730461,9.484550476,-3.222533941,10.1085182
1.835474794,-1.265803218,9.503693581,-3.16032052,10.09505202
1.837981669,-1.155733347,9.474979401,-3.212962627,10.07144891
1.840488284,-1.05523479,9.451051712,-3.241676569,10.04710734
1.842995055,-0.9451649189,9.470193863,-3.284747362,10.06814152
1.84550193,-0.8733802438,9.451051712,-3.318246841,10.05464736
1.848008753,-0.7728816867,9.436694145,-3.332603693,10.03766855
1.850515524,-0.7441678643,9.479764938,-3.308675528,10.06812112
1.853022034,-0.7154539824,9.45583725,-3.346960783,10.0561861
1.855528336,-0.7250252366,9.446265221,-3.308675528,10.0351842
1.858034794,-0.7345965505,9.42712307,-3.246462107,9.997489569
1.860541409,-0.7776673436,9.39840889,-3.294318676,9.989363928
1.863047815,-0.8542376757,9.384052277,-3.375674486,10.00926258
1.865554326,-0.9164510965,9.384052277,-3.452244759,10.04083232
1.868060888,-0.9786644578,9.355338097,-3.533600807,10.04820729
1.870567294,-0.9882357717,9.379266739,-3.5766716,10.08661659
1.873073701,-0.9786644578,9.336195946,-3.586242914,10.04905354
1.875580419,-1.045663476,9.393623352,-3.528815269,10.0889102
1.878087138,-1.002592683,9.369695663,-3.490530014,10.04888992
1.880593753,-1.016949654,9.422337532,-3.509672642,10.10605923
1.883100419,-0.9403793216,9.436694145,-3.543172121,10.12371366
1.885607086,-0.8925228715,9.441479683,-3.59102869,10.14069143
1.888113597,-0.8015955687,9.518050194,-3.62452817,10.21631242
1.890620055,-0.7680960894,9.537193298,-3.490530014,10.1848823
1.893126513,-0.7393822074,9.60419178,-3.418745279,10.22130154
1.895633024,-0.7728816867,9.608977318,-3.337389469,10.20137048
1.898139534,-0.8207381964,9.675976753,-3.356531858,10.27445587
1.900646201,-0.9116654396,9.709476471,-3.370888948,10.31833124
1.903152711,-1.036092162,9.723833084,-3.433102369,10.36400544
1.905659274,-1.131805062,9.771689415,-3.490530014,10.43794503
1.908165888,-1.203589797,9.685547829,-3.500101328,10.3686631
1.910672763,-1.332802176,9.690333366,-3.485744476,10.38409057
1.91317943,-1.428515077,9.613762856,-3.423531055,10.30464247
1.915685784,-1.533799291,9.556335449,-3.366103172,10.24727954
1.918192294,-1.653440475,9.532406807,-3.313461065,10.22642015
1.920698753,-1.792224169,9.489336014,-3.284747362,10.20044757
1.923205419,-1.864607096,9.441479683,-3.313461065,10.17827699
1.92571219,-1.945963025,9.431908607,-3.370888948,10.20345845
1.928218805,-2.032104731,9.379266739,-3.437887907,10.19407512
1.930725524,-2.070389748,9.364909172,-3.471387386,10.1999298
1.93323219,-2.156531334,9.384052277,-3.538386583,10.25822812
1.935738909,-2.118246317,9.369695663,-3.600599766,10.2587759
1.938245419,-2.127817631,9.431908607,-3.667598963,10.34116966
1.940752138,-2.103889227,9.393623352,-3.677170277,10.30476059
1.943258961,-2.118246317,9.503693581,-3.662813187,10.40304569
1.945765732,-2.070389748,9.489336014,-3.643670797,10.37354079
1.948272399,-2.103889227,9.541978836,-3.643670797,10.42842495
1.950778961,-2.060818434,9.5754776,-3.662813187,10.45719582
1.953285524,-2.099103689,9.661619186,-3.667598963,10.54534986
1.955792034,-2.113460541,9.680762291,-3.696312666,10.57575535
1.958298649,-2.16131711,9.766903877,-3.758526087,10.68598247
1.960805263,-2.209173441,9.819545746,-3.787240028,10.75393477
1.963311565,-2.300100803,9.848259926,-3.81595397,10.80926417
1.965818024,-2.367099762,9.853045464,-3.854238987,10.84162462
1.96832443,-2.48195529,9.881759644,-3.868596077,10.89840866
1.970830784,-2.582453728,9.900901794,-3.892524242,10.94754167
1.973337242,-2.706880569,9.948758125,-3.839882135,11.0022582
1.975843701,-2.81695056,9.896116257,-3.868596077,10.99246847
1.978350576,-2.917448997,9.91047287,-3.873381615,11.03322556
1.980857294,-2.989831924,9.872187614,-3.892524242,11.02501375
1.983363753,-3.071187973,9.896116257,-3.93140769,11.08247621
1.985870367,-3.166900873,9.872187614,-3.969692707,11.10170301
1.988376826,-3.224328518,9.862616539,-3.89730978,11.08406617
1.990883544,-3.276970625,9.848259926,-3.849453449,11.07000686
1.993390367,-3.324826956,9.829116821,-3.835096598,11.06227724
1.995897034,-3.30089879,9.857831001,-3.849453449,11.08562388
1.998403649,-3.286541939,9.862616539,-3.89730978,11.10232347
2.000910472,-3.209971666,9.857831001,-3.936193228,11.08938083
2.003417399,-3.104687452,9.924830437,-3.93140769,11.1174327
2.005924169,-2.994617462,9.948758125,-3.945764542,11.11371134
2.008431201,-2.81695056,9.982257843,-3.926023722,11.09028153
2.010937867,-2.668595552,10.01097202,-3.81595397,11.04094506
2.013444899,-2.496312141,10.02532864,-3.796811342,11.00702344
2.01595193,-2.347957134,10.04447079,-3.734597921,10.97048393
2.018458701,-2.190030813,10.03968525,-3.696312666,10.92035907
2.020965524,-2.056032896,9.987043381,-3.753740549,10.86549009
2.023471982,-1.859821439,9.934401512,-4.285545349,10.97803116
2.025978753,-1.821536183,9.848259926,-5.01774931,11.20196526
2.028485576,-1.744367719,9.80997467,-4.706682205,11.01958616
2.030992347,-1.538584948,9.752547264,-4.113262177,10.69571632
2.033499065,-1.361516118,9.76211834,-4.199403763,10.7139009
2.036005888,-1.112662554,9.800403595,-4.390829563,10.79654171
2.038512815,-0.9547362328,9.915258408,-4.438685894,10.90531077
2.041019794,-0.7968099117,10.04447079,-4.357329845,10.97782414
2.043526826,-0.7489534616,10.12582684,-4.161118507,10.97306738
2.046033857,-0.5808576941,10.19761181,-3.945764542,10.94978265
2.048540888,-0.4612165689,10.2652092,-3.863810301,10.97799028
2.051047763,-0.3176472187,10.32742214,-3.768097401,10.99795917
2.053554586,-0.2267199457,10.3657074,-3.782454491,11.03658705
2.056061357,-0.03529413417,10.37049294,-3.849453449,11.06194654
2.05856818,0.1417747438,10.36092186,-4.04147768,11.12215553
2.061075003,0.3092723191,10.38006496,-4.084548473,11.15907408
2.063581617,0.4725824594,10.33220863,-3.974478483,11.08035869
2.066088284,0.5300102234,10.36092186,-3.849453449,11.06561812
2.068594951,0.5395814776,10.33699417,-3.835096598,11.03868482
2.071101617,0.5395814776,10.33220863,-3.93140769,11.06804634
2.073608336,0.4677968323,10.32742214,-4.137190342,11.13511679
2.076115263,0.4049852192,10.34177971,-4.218546391,11.17642851
2.078622242,0.2327020019,10.44227791,-4.218546391,11.26461059
2.081129169,0.1082752272,10.47577763,-4.113262177,11.25489076
2.083636044,-0.08315058798,10.52841949,-3.960121393,11.24887072
2.086142659,-0.2506481707,10.55713367,-3.839882135,11.2365738
2.088649326,-0.4899304509,10.60499001,-3.763311863,11.26358562
2.091156149,-0.6669993401,10.60499001,-3.739383698,11.26471001
2.093662972,-0.8877372146,10.62413216,-3.854238987,11.33646416
2.096169534,-1.093519926,10.59063339,-4.098905087,11.40869512
2.098676409,-1.29451704,10.5475626,-4.175475597,11.41759378
2.101183284,-1.505085468,10.46620655,-3.969692707,11.2944775
2.103689847,-1.710868239,10.43270683,-3.811168194,11.23803564
2.106196409,-1.878963947,10.30349445,-3.677170277,11.10018399
2.108702919,-2.027318954,10.31306553,-3.634099483,11.12097216
2.111209586,-2.127817631,10.29870892,-3.5766716,11.10781675
2.113716253,-2.29052949,10.2652092,-3.514458179,11.08929491
2.116222711,-2.410170555,10.22692394,-3.461816072,11.06268801
2.118729117,-2.462812662,10.25085258,-3.39960289,11.07712619
2.121235524,-2.534597397,10.24606609,-3.260818958,11.04712608
2.123742034,-2.515454769,10.19761181,-3.150749207,10.96567462
2.126248492,-2.496312141,10.16889763,-3.093321562,10.9181817
2.128755159,-2.410170555,10.16889763,-3.0981071,10.90016829
2.131261669,-2.309672117,10.15454102,-3.040679455,10.84873357
2.133768336,-2.175673962,10.1401844,-3.06460762,10.814283
2.136275055,-2.027318954,10.15454102,-3.059821844,10.7975569
2.138781617,-1.787438512,10.14496994,-3.026322365,10.73657201
2.141288128,-1.615155339,10.19761181,-2.992822886,10.74974429
2.143794951,-1.476371527,10.26042366,-3.088535786,10.81642362
2.146301878,-1.304088354,10.34177971,-3.217748165,10.90903099
2.148808701,-1.141376376,10.47099209,-3.356531858,11.05489581
2.151315472,-1.00737834,10.66720295,-3.543172121,11.28530454
2.15382219,-0.8685946465,10.87298584,-3.68674159,11.51383261
2.156328857,-0.7010970116,11.10748291,-3.882952929,11.78749494
2.158835628,-0.5042873621,11.3952198,-4.098905087,12.12049351
2.161342086,-0.3367897868,11.7589283,-4.208974838,12.49405024
2.163848701,-0.102293171,12.13699436,-4.204189301,12.844933
2.166355211,0.1896311939,12.47737408,-4.031906128,13.11400362
2.168861826,0.4438686073,12.86979675,-3.796811342,13.42551542
2.17136818,0.7070791125,13.2143631,-3.442673683,13.67374693
2.173874534,0.9463613629,13.56850052,-3.035893679,13.93615645
2.176381149,1.133001566,13.83709526,-2.642872572,14.13271641
2.178887555,1.281356573,14.05244923,-2.34137702,14.30367961
2.181393961,1.353141189,14.18166161,-2.140379906,14.40596207
2.183900419,1.367498159,14.23908901,-2.02073884,14.44662911
2.186406669,1.362712502,14.20559025,-1.968096614,14.40587324
2.18891318,1.338784218,14.07637787,-1.872383714,14.26332983
2.191419899,1.262213945,13.90409374,-1.656431437,14.05918817
2.193926357,1.176072359,13.66481209,-1.292722464,13.77611582
2.196432815,1.032503009,13.38186073,-0.9864411354,13.45783509
2.198939326,0.912861824,13.07557964,-0.8045865893,13.13207749
2.20144568,0.8027920127,12.79801178,-0.7663014531,12.84604213
2.203951982,0.6257231236,12.5491581,-0.8476574421,12.5933086
2.20645818,0.4965106845,12.37149143,-0.9290133715,12.41625503
2.208964899,0.4097708762,12.2614212,-0.9337990284,12.3037532
2.211471253,0.3332005441,12.19920826,-0.7854440212,12.22900761
2.213977919,0.3858426511,12.24706459,-0.5072783828,12.26363718
2.216484326,0.4193421602,12.34277725,-0.2297109663,12.35203486
2.218990836,0.4725824594,12.41456223,0.1148554832,12.42408472
2.221497347,0.5347958803,12.55872917,0.3828516304,12.57593974
2.224003909,0.5970092416,12.6879425,0.4929214716,12.71154108
2.22651068,0.6065805554,12.8315115,0.4833501875,12.85493114
2.229017242,0.5874379873,12.9511528,0.4115654826,12.97099952
2.231523805,0.6352944374,13.06122208,0.1483550072,13.07750475
2.234030419,0.6161518097,13.10907841,-0.1579262912,13.12450077
2.23653693,0.6113662124,13.20000648,-0.4642075896,13.22230799
2.239043492,0.6448656917,13.22871971,-0.613160789,13.25861392
2.241550055,0.7357929349,13.24307728,-0.6370890141,13.27879398
2.244056722,0.7740781307,13.19043446,-0.5748756528,13.22562816
2.246563336,0.7932206988,13.12822151,-0.6227321029,13.16689768
2.249070003,0.7836494446,13.01815128,-0.7423732281,13.06282846
2.251576617,0.7549355626,12.83629704,-1.034297585,12.90000856
2.254083232,0.6927221417,12.61137199,-1.345364571,12.70183346
2.256589951,0.7118647099,12.31884956,-1.700100541,12.45596836
2.259096774,0.6927221417,12.02692509,-2.00638175,12.21279488
2.26160344,0.6783652306,11.72542953,-2.274377823,11.96322162
2.264110003,0.6879364848,11.47657585,-2.556730986,11.77802714
2.266616565,0.6592226624,11.21276665,-2.791227579,11.57374882
2.269123232,0.6879364848,10.98784161,-3.035893679,11.42027015
2.271629794,0.6783652306,10.81555843,-3.174677372,11.29225664
2.274136513,0.6975077987,10.61934662,-3.222533941,11.11943185
2.276643284,0.5778666735,10.46142101,-3.246462107,10.96880922
2.279149899,0.4534398913,10.29870892,-3.208176851,10.79636104
2.281656617,0.3810569942,10.1401844,-3.19382,10.63809336
2.28416318,0.1800599098,10.05404282,-3.222533941,10.55939977
2.286669794,-0.09272187948,9.886545181,-3.342175007,10.4365946
2.289176201,-0.394217521,9.800403595,-3.600599766,10.44833177
2.291682867,-0.8350951076,9.73340416,-3.849453449,10.5002301
2.294189534,-1.308874011,9.613762856,-4.103690624,10.53460318
2.296696409,-1.763510346,9.527621269,-4.223331928,10.56986605
2.299203128,-2.25703001,9.489336014,-4.319045067,10.66751296
2.301709794,-2.764308453,9.431908607,-4.342973232,10.74540449
2.304216513,-3.267399311,9.350552559,-4.357329845,10.82104684
2.30672344,-3.707678795,9.264410973,-4.189832687,10.82270256
2.309230159,-4.110270977,9.183054924,-3.998406649,10.82636047
2.311736826,-4.497908592,9.081958771,-3.844667673,10.83949382
2.314243284,-4.852046013,8.995817184,-3.763311863,10.89172133
2.316749899,-5.197210789,8.928817749,-3.882952929,11.03685235
2.319256565,-5.527420521,8.833105087,-4.098905087,11.19719367
2.32176318,-5.800201893,8.756534576,-4.520041943,11.43459745
2.324269742,-6.116054535,8.665607452,-5.147559643,11.78966691
2.326776357,-6.370292187,8.589036942,-5.989833355,12.25684632
2.329282919,-6.580860615,8.498109818,-6.97627449,12.81382077
2.331789482,-6.777071953,8.431110382,-7.685148239,13.26928144
2.334295784,-6.934998035,8.378468513,-7.905287743,13.44568729
2.336802347,-7.088139057,8.3641119,-7.871788502,13.49685657
2.339309117,-7.174280643,8.373682976,-7.646862984,13.4187698
2.34181594,-7.356134892,8.43589592,-7.417151928,13.42725598
2.344322659,-7.629515171,8.531609535,-7.043273449,13.43895695
2.34682943,-7.945367813,8.632107735,-6.607779503,13.46495093
2.349336044,-8.242077827,8.780462265,-6.215356827,13.55208563
2.351842555,-8.519644737,8.938388824,-5.994618893,13.72641967
2.354349065,-8.716454506,9.043673515,-5.846263885,13.85436434
2.356855628,-8.783453941,9.130413055,-5.573482037,13.84114185
2.359362242,-8.745168686,9.230911255,-5.233701229,13.75061186
2.361868753,-8.611170769,9.283554077,-4.84546566,13.55784554
2.364375211,-8.438288689,9.293125153,-4.438685894,13.31423387
2.366881878,-8.194221497,9.250054359,-4.070191383,13.01058144
2.36938818,-7.902296543,9.192625999,-3.820739508,12.7101815
2.371894482,-7.576872826,9.111269951,-3.528815269,12.36433497
2.374401149,-7.179066181,8.991030693,-3.366103172,11.98783862
2.376907815,-6.815357208,8.82831955,-3.141177893,11.58685973
2.379414482,-6.408577442,8.61296463,-2.930609465,11.12840943
2.381921044,-6.010770321,8.330612183,-2.849253654,10.66052089
2.384427555,-5.575276852,8.024331093,-2.868396044,10.18338339
2.386934169,-5.134399414,7.72223711,-2.954537868,9.732640821
2.38944094,-4.737190723,7.38724184,-3.107678413,9.309671481
2.391947711,-4.301696777,7.013961315,-3.303889751,8.866562806
2.394454326,-3.937389612,6.668796539,-3.547957659,8.518443977
2.396961097,-3.655036688,6.324230194,-3.70588398,8.190772663
2.399467867,-3.339184046,5.994020939,-3.830310822,7.858098886
2.401974586,-3.085544825,5.749952793,-3.921238184,7.613058051
2.404481149,-2.855235577,5.471786976,-4.003192425,7.356519048
2.406987763,-2.745165825,5.25643301,-4.04147768,7.176319756
2.40949443,-2.606382132,5.09372139,-4.055834293,7.013488235
2.412000836,-2.558525562,4.96450901,-4.003192425,6.871532024
2.414507138,-2.510669231,4.878366947,-3.916452408,6.74095865
2.417013701,-2.544168711,4.801796913,-3.782454491,6.620952348
2.419520315,-2.601596355,4.74436903,-3.662813187,6.534029502
2.42202693,-2.726023197,4.768297195,-3.552743435,6.541394846
2.424533753,-2.883949518,4.75872612,-3.476173162,6.560976982
2.427040367,-3.042474031,4.797011375,-3.423531055,6.632385035
2.429547242,-3.281756163,4.830510616,-3.299104214,6.707297886
2.432053961,-3.482753277,4.897509575,-3.299104214,6.85560056
2.434560732,-3.760320902,4.954937458,-3.342175007,7.061271293
2.437067607,-4.03788805,5.041079044,-3.509672642,7.35083804
2.439574482,-4.239483356,5.151148796,-3.643670797,7.601571543
2.442081357,-4.478765965,5.232504845,-3.835096598,7.883299907
2.444588336,-4.646263599,5.309075356,-4.022335052,8.121159144
2.447095159,-4.737190723,5.404788017,-4.127619267,8.28794005
2.449601826,-4.818546772,5.505286694,-4.194618225,8.433350261
2.45210844,-4.780261517,5.57707119,-4.232903481,8.477741155
2.454614951,-4.651049137,5.644070625,-4.204189301,8.435816438
2.457121409,-4.48833704,5.677569866,-4.046263218,8.291695544
2.459628076,-4.335196495,5.730810165,-3.940979004,8.195573763
2.462134638,-4.115056515,5.701498032,-3.81595397,8.000142163
2.464641357,-3.903890133,5.726024628,-3.677170277,7.845336032
2.467148076,-3.707678795,5.687141418,-3.59102869,7.680230896
2.469654899,-3.473181963,5.648856163,-3.39960289,7.4518366
2.472161722,-3.267399311,5.557928562,-3.246462107,7.218447504
2.474668701,-3.157329559,5.500501156,-3.208176851,7.107506006
2.477175419,-2.994617462,5.380859852,-3.19382,6.936993058
2.479682294,-2.951546669,5.266004562,-3.256033421,6.858876397
2.482189117,-2.903092146,5.208576679,-3.452244759,6.890225606
2.48469568,-2.874378204,5.122435093,-3.806382656,6.999281411
2.487202451,-2.773879766,5.050650597,-4.02712059,7.030019961
2.489709378,-2.659024239,4.93579483,-3.936193228,6.850262596
2.492216461,-2.620738983,4.907081127,-3.62452817,6.639647766
2.494723597,-2.587239504,4.916652203,-3.189034462,6.40602981
2.497230472,-2.678166628,4.988437176,-2.849253654,6.338401086
2.499737086,-2.850450039,5.060221672,-2.647658348,6.38286797
2.502243857,-3.080759048,5.179862976,-2.62851572,6.57504005
2.504750524,-3.329612732,5.333003521,-2.695514679,6.840544341
2.507257503,-3.626322746,5.490929604,-2.849253654,7.170688318
2.509764222,-3.946960926,5.667998791,-2.944966555,7.508497776
2.512271044,-4.383052826,5.917450428,-3.112463951,7.994673445
2.514777659,-4.82333231,6.108876228,-3.3852458,8.48780257
2.51728443,-5.30728054,6.34815836,-3.59102869,9.020079176
2.519791305,-5.814558983,6.616154671,-3.849453449,9.6125382
2.522297972,-6.389434814,6.879963398,-3.998406649,10.20519619
2.524804847,-6.968497753,7.152745247,-4.165904045,10.82018863
2.527311669,-7.543373585,7.401598454,-4.237689018,11.38613863
2.529818388,-8.127222061,7.683951855,-4.285545349,11.97751032
2.532325003,-8.73559761,7.937591076,-4.338187218,12.57520918
2.534831878,-9.34815979,8.172685623,-4.376472473,13.16565202
2.537338649,-9.908679008,8.388039589,-4.338187218,13.68798729
2.539845211,-10.42552853,8.555537224,-4.280759811,14.1496914
2.542351669,-10.87597752,8.64167881,-4.161118507,14.50104847
2.544858388,-11.28275681,8.67039299,-4.146761417,14.82133415
2.547364951,-11.61775208,8.656036377,-4.108476639,15.05917359
2.549871617,-11.83789158,8.565108299,-4.031906128,15.15760615
2.552378128,-11.98205948,8.411968231,-4.046263218,15.18891717
2.55488469,-12.02513027,8.220541954,-4.022335052,15.11159314
2.557391617,-11.91446209,8.000402451,-3.974478483,14.89151857
2.559898336,-11.71346474,7.755736351,-3.844667673,14.56496385
2.562405159,-11.47896862,7.521239758,-3.696312666,14.21261747
2.56491193,-11.15354443,7.238886833,-3.619742393,13.78062302
2.567418701,-10.81376362,7.090531826,-3.586242914,13.41917521
2.569925576,-10.36810017,6.899106026,-3.519243956,12.9414158
2.572432555,-9.879964828,6.788437843,-3.538386583,12.49867085
2.574939586,-9.338588715,6.683153629,-3.586242914,12.03058269
2.577446513,-8.778668404,6.644868374,-3.658027649,11.60174387
2.57995344,-8.184649467,6.592226505,-3.729812384,11.1515666
2.582460211,-7.56730175,6.597012043,-3.734597921,10.71129522
2.584966826,-6.920641422,6.611369133,-3.753740549,10.28085831
2.587473492,-6.273981094,6.707081795,-3.81595397,9.945314961
2.589980159,-5.632704735,6.788437843,-3.844667673,9.622459171
2.592486982,-5.048257351,6.97567606,-3.902095556,9.45363996
2.594993544,-4.426123619,7.133602619,-4.0127635,9.30489804
2.597500107,-3.899104595,7.396812916,-4.079762459,9.30377986
2.600006565,-3.34875536,7.67916584,-4.103690624,9.328666957
2.602513128,-2.888735056,7.990831375,-4.15633297,9.459031665
2.605019638,-2.467598438,8.330612183,-4.266402721,9.679376714
2.607526305,-2.079961061,8.708678246,-4.323830605,9.942978724
2.610033076,-1.782652855,9.053244591,-4.424329281,10.23297505
2.612539899,-1.51944232,9.45583725,-4.510470867,10.58611876
2.615046565,-1.313659668,9.814760208,-4.582255363,10.91110828
2.61755318,-1.232303619,10.16889763,-4.759324074,11.29496422
2.620059742,-1.179661512,10.53799057,-4.869394302,11.66841238
2.622566253,-1.29451704,10.8682003,-5.00339222,12.03442919
2.625073024,-1.538584948,11.1314106,-5.166702271,12.36811861
2.627579638,-1.898106575,11.44786167,-5.267200947,12.7436161
2.630086149,-2.333600283,11.69192982,-5.334199905,13.06141653
2.632592711,-2.879163742,11.84028435,-5.324628353,13.29787894
2.635099222,-3.52582407,12.02692509,-5.29591465,13.60606756
2.637605888,-4.229912281,12.13220882,-5.224130154,13.86990212
2.640112607,-4.890331268,12.2039938,-5.10448885,14.10349641
2.642619482,-5.632704735,12.20877934,-5.094917774,14.37845063
2.645126357,-6.302694798,12.19442272,-5.09013176,14.64026463
2.647633336,-6.992425919,12.11785221,-5.157131195,14.91081368
2.650140211,-7.548159122,11.96949673,-5.176273346,15.06775908
2.652646774,-8.036294937,11.76850033,-5.128417015,15.14530612
2.65515318,-8.38564682,11.50528908,-4.97467804,15.08105338
2.657659951,-8.644669533,11.16491032,-4.735395908,14.89327056
2.660166774,-8.740383148,10.78205872,-4.409972191,14.56347975
2.662673492,-8.749954224,10.4279213,-3.916452408,14.16480995
2.665180107,-8.682954788,10.0779705,-3.490530014,13.75292671
2.667686617,-8.606385231,9.795618057,-3.203391314,13.42705164
2.670193284,-8.395217896,9.527621269,-3.007179976,13.04984222
2.672699951,-8.175078392,9.321838379,-2.978466034,12.75146413
2.675206722,-7.897511005,9.159127235,-3.011965513,12.46323506
2.67771318,-7.576872826,9.072386742,-3.088535786,12.21704777
2.680219847,-7.207779884,9.000602722,-3.260818958,11.98314986
2.682726357,-6.839285374,8.971888542,-3.442673683,11.79502482
2.685232763,-6.470790863,9.000602722,-3.758526087,11.7050631
2.687739169,-6.187839508,9.106484413,-4.132404804,11.75985483
2.690245784,-5.838487148,9.216554642,-4.620540619,11.84829976
2.692752399,-5.532206059,9.32662487,-5.056632519,11.96498089
2.695258961,-5.148756027,9.451051712,-5.405984402,12.04395012
2.697765836,-4.718048096,9.589835167,-5.496912003,12.0183592
2.700272399,-4.220340729,9.709476471,-5.319842815,11.84845715
2.702778909,-3.650250912,9.79083252,-4.907679081,11.54426468
2.705285524,-3.032902718,9.867402077,-4.285545349,11.17720992
2.707792034,-2.448455811,9.915258408,-3.672384501,10.85328029
2.710298701,-1.840678811,9.943972588,-3.131606579,10.58667318
2.712805315,-1.270588875,9.934401512,-2.743371248,10.38425805
2.715311774,-0.7393822074,9.867402077,-2.556730986,10.22003831
2.717818284,-0.2315055877,9.795618057,-2.441875458,10.09804356
2.720324742,0.2135594189,9.695118904,-2.451446772,10.00252615
2.722831253,0.5922235847,9.556335449,-2.494517565,9.89428592
2.725338024,0.9367900491,9.388837814,-2.599801779,9.787074149
2.727844586,1.228714466,9.192625999,-2.647658348,9.64490574
2.730351201,1.47756803,9.029315948,-2.820539713,9.574298828
2.732857919,1.569093466,8.87617588,-2.916252613,9.473810314
2.735364482,1.664806366,8.713463783,-3.150749207,9.413992347
2.737870836,1.712662816,8.569893837,-3.251247883,9.32453254
2.740377242,1.72223413,8.407182693,-3.366103172,9.218322071
2.742883857,1.62652123,8.301898003,-3.332603693,9.092487511
2.745390367,1.539781332,8.182256699,-3.275176048,8.946900546
2.74789693,1.353141189,8.163114548,-3.126821041,8.845588732
2.750403284,1.152144074,8.15832901,-2.868396044,8.724303071
2.752909742,0.888933599,8.191828728,-2.523231506,8.617595841
2.755416044,0.5922235847,8.187042236,-2.159522533,8.487751582
2.757922555,0.1513460279,8.249256134,-1.872383714,8.460434573
2.760429222,-0.2841476798,8.321041107,-1.599003673,8.478046813
2.762935836,-0.7824530005,8.392825127,-1.498505235,8.561382146
2.765442399,-1.241874933,8.43589592,-1.508076429,8.659150526
2.767948857,-1.677368641,8.541180611,-1.6181463,8.853458603
2.770455367,-2.094317913,8.555537224,-1.771885157,8.984595802
2.772961774,-2.438884497,8.541180611,-1.948953986,9.093863065
2.77546844,-2.668595552,8.517251968,-2.097309113,9.168625242
2.777975159,-2.917448997,8.421539307,-2.226521492,9.186469991
2.780481722,-3.056830883,8.330612183,-2.283949137,9.162954657
2.782988336,-3.157329559,8.234899521,-2.279163599,9.109164988
2.785494951,-3.267399311,8.124829292,-2.221735716,9.03464769
2.788001461,-3.363112211,8.038687706,-2.178664923,8.982071288
2.79050818,-3.458825111,7.951947689,-2.202593327,8.946974939
2.793014899,-3.564109325,7.918448448,-2.250449657,8.970464022
2.795521617,-3.674179077,7.928019524,-2.360519648,9.051250657
2.798028388,-3.774677753,8.029116631,-2.542374134,9.229223816
2.800535367,-3.769891977,8.182256699,-2.642872572,9.388620007
2.803041982,-3.674179077,8.541180611,-2.733799934,9.691492155
2.805548805,-3.415754318,9.072386742,-2.849253654,10.10414891
2.808055628,-2.970689297,9.876974106,-2.901895761,10.71450472
2.810562347,-2.376671076,11.14576817,-2.470589399,11.66106879
2.813069065,-1.51944232,13.06600761,-0.7280163169,13.17418945
2.815575888,-0.1836491376,15.77109432,2.892324448,16.03517022
2.818082607,1.894517303,19.22872353,8.441878319,21.08550008
2.820589222,5.097908497,22.89153671,15.03948879,27.86031851
2.823096044,8.942576408,26.00878525,20.4311161,34.26159786
2.825602659,12.19382381,28.18266487,21.44148636,37.45249358
2.828109326,13.87418365,29.18765068,16.41895103,36.24905347
2.830615992,14.13320732,29.06322289,6.717849731,33.00830166
2.833122711,13.26640701,27.65564537,-4.194618225,30.95847377
2.83562943,11.54716396,25.23769951,-13.03370476,30.6619623
2.838136044,9.349356651,22.09652138,-18.12802505,30.07144857
2.840642867,7.007979393,18.83091545,-18.82732582,27.53512937
2.843149847,5.198407173,15.70409489,-15.32244015,22.54815304
2.845656774,4.116253376,12.9320097,-8.762516975,16.15432203
2.848163805,3.680161238,10.54277611,-1.297508121,11.2417633
2.850670419,3.474378586,8.579465866,4.740181446,10.39941639
2.853177399,3.192025423,7.061817646,7.685148239,10.91420168
2.855684326,2.679961443,5.922235966,7.622934818,10.01819382
2.858191357,1.832303882,5.132006168,5.315057278,7.612138904
2.860698336,0.7070791125,4.566701889,1.992024899,5.032185431
2.863205263,-0.566500783,4.150351048,-1.369292736,4.406960353
2.865712242,-1.936391711,3.824927092,-4.04147768,5.891792762
2.868219065,-3.276970625,3.547359467,-5.697908878,7.469167373
2.870725992,-4.66540575,3.355335474,-6.454638958,8.642143891
2.873233128,-6.058627129,3.178266764,-6.746563435,9.608561832
2.875740107,-7.466803074,3.07298255,-7.004988194,10.68953832
2.878247034,-8.888737679,3.053839922,-7.364510059,11.94033518
2.880753909,-10.20538902,3.135195971,-7.546364307,13.07390658
2.883260784,-11.33061314,3.384049416,-7.277770042,13.88526274
2.885767503,-12.28355503,3.748356581,-6.358926296,14.33080057
2.888274169,-13.03011608,4.317848682,-4.888536453,14.57139427
2.890781044,-13.50449276,5.098506927,-3.313461065,14.81030458
2.893287867,-13.87298775,6.084948063,-2.087737799,15.29199238
2.895794794,-14.14098358,7.147959232,-1.479362607,15.91380695
2.898301774,-14.23729515,8.263612747,-1.622931957,16.54151677
2.900808805,-14.15534019,9.384052277,-2.394019127,17.15125129
2.903315628,-13.7916317,10.37049294,-3.447459221,17.59662478
2.905822294,-13.21735382,11.16969585,-4.515256405,17.88429724
2.908329013,-12.34098244,11.7780714,-5.271986485,17.85543769
2.91083594,-11.28275681,12.11785221,-5.61655283,17.4839529
2.913342815,-10.00917721,12.24706459,-5.63090992,16.78932298
2.915849534,-8.730812073,12.16570854,-5.453841209,15.93662222
2.918356201,-7.438089371,11.98385429,-5.142774105,15.01286324
2.920862815,-6.192625046,11.71585751,-4.759324074,14.08052157
2.923369482,-5.01475811,11.40479088,-4.376472473,13.20494472
2.925876513,-3.870390654,11.07876873,-3.984049797,12.39321158
2.928383492,-2.788236618,10.748559,-3.667598963,11.69431769
2.930890419,-1.768295884,10.51406288,-3.471387386,11.2126232
2.93339719,-0.8494520187,10.24128056,-3.452244759,10.84082054
2.935903909,0.0747757107,10.05882835,-3.528815269,10.66011991
2.93841094,0.9750752449,9.900901794,-3.715455294,10.6199452
2.940917815,1.822732687,9.786046028,-3.89730978,10.69009237
2.943424794,2.737389088,9.766903877,-4.079762459,10.93298551
2.945931722,3.656233072,9.757332802,-4.223331928,11.24322535
2.948438649,4.585246563,9.800403595,-4.189832687,11.60289165
2.950945419,5.418546677,9.848259926,-4.003192425,11.93207531
2.953452294,6.280561447,9.929615974,-3.748954773,12.33277695
2.955959326,6.9649086,10.03968525,-3.5766716,12.73176388
2.958466253,7.511070251,10.14975548,-3.39960289,13.07635318
2.960973232,7.865208149,10.26999474,-3.351746321,13.36295231
2.963480003,8.003992081,10.35613632,-3.394817114,13.52176882
2.965986669,7.884350777,10.43270683,-3.514458179,13.54089271
2.968493649,7.534998417,10.49013424,-3.72024107,13.44095648
2.971000419,6.926623344,10.49491978,-3.882952929,13.16050058
2.973507451,6.069993019,10.47099209,-4.15633297,12.79693691
2.97601443,5.150550842,10.38963604,-4.299902439,12.36777555
2.978521253,4.130609989,10.26042366,-4.386044025,11.89855515
2.98102818,3.129812002,10.11147022,-4.405186653,11.46486907
2.983535107,2.09072876,9.929615974,-4.443471432,11.0775836
2.986041774,1.061216831,9.747760773,-4.424329281,10.75730965
2.98854844,0.09870393574,9.527621269,-4.33340168,10.46726706
2.991055211,-0.7489534616,9.340981483,-4.228117466,10.28065385
2.99356193,-1.567298889,9.178269386,-4.165904045,10.20057897
2.996068597,-2.33838582,8.971888542,-4.060619831,10.12183114
2.998575159,-2.956332445,8.837890625,-3.979264021,10.13324994
3.001081826,-3.473181963,8.684749603,-3.868596077,10.1219516
3.003588336,-3.894318819,8.569893837,-3.849453449,10.16991108
3.006095003,-4.234697819,8.469395638,-3.748954773,10.18420296
3.008601878,-4.48833704,8.440681458,-3.691527128,10.24781174
3.011108597,-4.631906509,8.392825127,-3.562314749,10.22663962
3.013615419,-4.646263599,8.431110382,-3.466601849,10.23175039
3.01612219,-4.540979385,8.426324844,-3.356531858,10.1434585
3.018628805,-4.354339123,8.474181175,-3.361317635,10.10299322
3.02113568,-4.100699902,8.541180611,-3.370888948,10.05636108
3.023642399,-3.76510644,8.608179092,-3.447459221,10.00808418
3.026149378,-3.353540897,8.703892708,-3.418745279,9.934374872
3.028656097,-2.883949518,8.823533058,-3.452244759,9.904034245
3.031163076,-2.395813704,8.909674644,-3.519243956,9.874578654
3.033669794,-1.902892232,9.062815666,-3.629313707,9.946232685
3.036176617,-1.42372942,9.202198029,-3.782454491,10.05059282
3.038683284,-0.9116654396,9.331410408,-3.859024763,10.13895587
3.041190107,-0.494716078,9.489336014,-3.854238987,10.25414063
3.043696878,-0.08793623,9.642477036,-3.839882135,10.37929627
3.046203701,0.285344094,9.786046028,-3.854238987,10.52156245
3.048710315,0.6209374666,9.862616539,-3.906881094,10.62640523
3.051217034,0.9559326172,9.934401512,-3.974478483,10.74256114
3.053723909,1.214357495,10.01575756,-3.988835335,10.84900322
3.056230784,1.420140266,10.04447079,-4.036691666,10.91801591
3.058737711,1.621735573,10.09232807,-4.074976921,11.0041151
3.061244638,1.731805444,10.09711361,-4.070191383,11.02348907
3.063751565,1.813161373,10.06839943,-3.998406649,10.98396454
3.06625844,1.884945989,10.03011417,-3.940979004,10.94017949
3.068765315,1.875374794,10.01097202,-3.91166687,10.91044129
3.07127219,1.846660852,9.929615974,-3.863810301,10.81371628
3.073779274,1.789233088,9.924830437,-3.777668715,10.76914087
3.076286305,1.727019787,9.833903313,-3.70588398,10.64996844
3.078793284,1.588235974,9.728618622,-3.595814228,10.49277817
3.081300367,1.439282775,9.666405678,-3.524029493,10.38892283
3.083807294,1.238285661,9.608977318,-3.370888948,10.25810357
3.086314065,0.994217813,9.561120987,-3.203391314,10.13238469
3.088820836,0.7166503668,9.541978836,-3.031108141,10.03745807
3.091327867,0.4534398913,9.522835732,-2.858824968,9.953034126
3.093834794,0.1465603858,9.503693581,-2.676372051,9.87444373
3.096341565,-0.1501496136,9.508479118,-2.580659151,9.853604503
3.098848388,-0.513858676,9.537193298,-2.480160713,9.867791238
3.101355055,-0.8015955687,9.570692062,-2.34137702,9.885481696
3.103861617,-1.131805062,9.565906525,-2.317448616,9.907477904
3.106368076,-1.356730461,9.537193298,-2.269592285,9.896960276
3.108874794,-1.629512191,9.541978836,-2.264806747,9.941530048
3.111381513,-1.821536183,9.489336014,-2.260020971,9.923365701
3.113888076,-2.003390789,9.460622787,-2.188236237,9.91490474
3.116394586,-2.132603168,9.422337532,-2.111665964,9.888759982
3.118901149,-2.237887383,9.364909172,-2.11645174,9.858449762
3.121407711,-2.276172638,9.288339615,-2.14995122,9.801862319
3.123914378,-2.213959217,9.230911255,-2.178664923,9.739503009
3.126421149,-2.190030813,9.173483849,-2.236092806,9.692737071
3.128927972,-2.084746838,9.192625999,-2.370090723,9.71945843
3.131434899,-1.926820397,9.12084198,-2.465803623,9.642747678
3.133941669,-1.749153376,9.163912773,-2.642872572,9.696474116
3.13644844,-1.505085468,9.125627518,-2.724228621,9.641772733
3.138955263,-1.261017561,9.183054924,-2.844467878,9.695857906
3.141462242,-1.021735311,9.187840462,-2.882753134,9.683523172
3.143968961,-0.7585247755,9.254839897,-2.949752092,9.743123666
3.146475888,-0.5760720372,9.331410408,-3.069393158,9.840134834
3.148982607,-0.3702892959,9.42712307,-3.203391314,9.96340702
3.151489326,-0.2410768867,9.436694145,-3.346960783,10.01556094
3.153996097,-0.1262213886,9.489336014,-3.547957659,10.13170437
3.156502815,-0.06879365444,9.565906525,-3.691527128,10.25371507
3.15900969,-0.0783649385,9.637691498,-3.835096598,10.37300363
3.161516669,-0.09272187948,9.623334885,-3.878167391,10.37580618
3.164023336,-0.1453639716,9.647262573,-3.887738705,10.40217853
3.166530263,-0.2506481707,9.70468998,-3.892524242,10.45923406
3.169037034,-0.3511467278,9.70468998,-3.882952929,10.45856754
3.171543857,-0.5282155871,9.690333366,-3.902095556,10.45982419
3.174050732,-0.7106683254,9.70468998,-3.998406649,10.52013844
3.176557607,-0.9116654396,9.652048111,-4.007977962,10.49080807
3.179064326,-1.179661512,9.613762856,-4.055834293,10.50075375
3.181571097,-1.399801254,9.561120987,-4.017549038,10.46494999
3.184077763,-1.610369682,9.546764374,-3.964907169,10.46204996
3.18658443,-1.864607096,9.503693581,-3.887738705,10.43606552
3.189091044,-2.089532375,9.465408325,-3.796811342,10.41037351
3.191597607,-2.324028969,9.460622787,-3.81595397,10.46260001
3.194104326,-2.558525562,9.417551994,-3.787240028,10.46802396
3.196611097,-2.773879766,9.451051712,-3.811168194,10.56133469
3.199117763,-2.956332445,9.42712307,-3.863810301,10.60846742
3.201624222,-3.114258766,9.451051712,-3.878167391,10.67994234
3.20413094,-3.253042459,9.431908607,-3.902095556,10.71305442
3.206637451,-3.382254839,9.470193863,-3.839882135,10.7642424
3.209144117,-3.492324591,9.465408325,-3.825525284,10.79003844
3.211650784,-3.568894863,9.45583725,-3.763311863,10.78482196
3.214157607,-3.611965895,9.498908043,-3.739383698,10.82859834
3.216664326,-3.655036688,9.503693581,-3.68674159,10.82919888
3.219171149,-3.683750391,9.513264656,-3.667598963,10.84082578
3.221677763,-3.693321705,9.508479118,-3.59102869,10.81421691
3.224184586,-3.698107481,9.522835732,-3.600599766,10.83165352
3.226691253,-3.698107481,9.498908043,-3.567100286,10.79951191
3.229197972,-3.62153697,9.513264656,-3.557528973,10.7830305
3.231704534,-3.611965895,9.513264656,-3.571886063,10.78456638
3.234211201,-3.559323788,9.532406807,-3.5766716,10.78555261
3.236717919,-3.521038532,9.580264091,-3.552743435,10.80745846
3.239224482,-3.406183004,9.546764374,-3.543172121,10.73763761
3.241731201,-3.324826956,9.589835167,-3.595814228,10.76797533
3.244237972,-3.248256683,9.608977318,-3.62452817,10.77129616
3.246744482,-3.152543783,9.666405678,-3.614956856,10.79100756
3.249251305,-3.008974552,9.690333366,-3.59102869,10.76345556
3.251757919,-2.893520832,9.738189697,-3.581457376,10.77179829
3.254264638,-2.76909399,9.757332802,-3.557528973,10.74846209
3.256771617,-2.635095835,9.76211834,-3.524029493,10.70800954
3.259278336,-2.48195529,9.757332802,-3.552743435,10.67649902
3.261785211,-2.38624239,9.766903877,-3.672384501,10.70387649
3.264292034,-2.266601324,9.771689415,-3.835096598,10.73924399
3.266798805,-2.194816589,9.805189133,-3.926023722,10.78761401
3.269305628,-2.089532375,9.824331284,-4.02712059,10.82133684
3.271812242,-1.984248161,9.881759644,-4.007977962,10.84667238
3.274319013,-1.907677889,9.924830437,-3.93140769,10.84423628
3.276825888,-1.87417829,10.00139999,-3.844667673,10.87759236
3.279332607,-1.80658114,9.987043381,-3.868596077,10.86143667
3.281839534,-1.801795483,10.03968525,-3.878167391,10.91246669
3.284346409,-1.811366796,10.03968525,-3.969692707,10.94690777
3.28685344,-1.850250125,10.05404282,-4.065405846,11.00157839
3.289360367,-1.950748682,10.09711361,-4.17069006,11.09737713
3.291867294,-1.960319996,10.08754253,-4.232903481,11.11390304
3.294374274,-2.027318954,10.0779705,-4.271188259,11.1318714
3.296881253,-2.060818434,10.13539886,-4.194618225,11.16100823
3.299388076,-2.16131711,10.14496994,-4.17069006,11.17972997
3.301894951,-2.247458696,10.17368412,-4.295116425,11.2695583
3.304401669,-2.266601324,10.14975548,-4.979464054,11.53039809
3.306908492,-2.462812662,10.16411209,-5.606981754,11.86645967
3.309415159,-2.563311338,10.15932655,-5.046463013,11.62967196
3.311922034,-2.582453728,10.11147022,-4.409972191,11.32955216
3.314428753,-2.539382935,10.11625576,-4.721039295,11.44881253
3.316935419,-2.505883455,10.21196842,-5.03689146,11.65907486
3.319442138,-2.448455811,10.34177971,-4.902893543,11.70408939
3.321948909,-2.486740828,10.47099209,-4.386044025,11.62165812
3.324455836,-2.477169752,10.51884842,-3.792025566,11.45259796
3.326962815,-2.309672117,10.53320503,-3.3852458,11.3023397
3.329469534,-2.06560421,10.55234814,-3.179463148,11.21283897
3.331976357,-1.768295884,10.49491978,-3.126821041,11.0926652
3.334483024,-1.399801254,10.34656525,-3.442673683,10.99376451
3.336989274,-1.016949654,10.2221384,-4.051048756,11.04252218
3.339495576,-0.614357233,10.03968525,-4.496113777,11.01761108
3.342002086,-0.1932204217,9.915258408,-4.505684853,10.89269844
3.344508597,0.1561316848,9.795618057,-4.256831646,10.68171924
3.347014899,0.4677968323,9.685547829,-4.070191383,10.51642185
3.349521253,0.7692924738,9.618548393,-4.113262177,10.48938558
3.352027399,0.941575706,9.637691498,-4.280759811,10.58756661
3.354533649,1.042074203,9.695118904,-4.486542225,10.73360659
3.357040003,1.070788145,9.800403595,-4.644468784,10.89796257
3.359546565,1.022931695,9.953543663,-4.687539577,11.04954515
3.362053388,0.9320043921,10.15932655,-4.610969067,11.19560556
3.364560055,0.7884350419,10.36092186,-4.443471432,11.30109596
3.367066826,0.6496513486,10.54277611,-4.338187218,11.41893354
3.369573388,0.4869394004,10.77248764,-4.352544308,11.62876786
3.372080003,0.3714857101,10.94955635,-4.33340168,11.78172976
3.374586669,0.2279163599,11.05005455,-4.433900356,11.90861553
3.37709344,0.0747757107,11.14576817,-4.500899315,12.02047562
3.379600263,-0.04007977992,11.24626637,-4.371686935,12.06614107
3.382106982,-0.1884347796,11.23669529,-4.17069006,11.98722171
3.384613753,-0.3080759048,11.21276665,-4.04147768,11.92285991
3.387120419,-0.4372883439,11.18883896,-3.974478483,11.8818272
3.389627242,-0.566500783,11.16491032,-3.796811342,11.80643561
3.392134169,-0.6478567123,11.12183952,-3.581457376,11.70221644
3.394640836,-0.8015955687,11.07398319,-3.337389469,11.59369776
3.397147607,-0.8877372146,10.99741268,-3.131606579,11.46900705
3.399654274,-1.026520967,10.90170002,-2.959323406,11.34276878
3.402160888,-1.136590719,10.8107729,-2.820539713,11.23032027
3.404667659,-1.189232826,10.69591713,-2.791227579,11.1179076
3.407174274,-1.227517962,10.58106136,-2.834896564,11.0228081
3.409680888,-1.256231904,10.45184898,-2.786442041,10.88960628
3.412187503,-1.213161111,10.35135078,-2.690729141,10.76393266
3.414694117,-1.189232826,10.24606609,-2.571087837,10.63045802
3.417200628,-1.093519926,10.14975548,-2.456232548,10.49982859
3.41970719,-1.074377418,10.06839943,-2.42273283,10.41136822
3.422213857,-1.045663476,10.06361389,-2.398804665,10.39826911
3.424720367,-1.012163997,10.01097202,-2.403590441,10.34510917
3.42722693,-1.002592683,9.977472305,-2.379662037,10.30620867
3.429733701,-1.036092162,9.958329201,-2.279163599,10.26822254
3.432240472,-1.05523479,9.96790123,-2.264806747,10.27627973
3.43474719,-1.088734269,9.972686768,-2.255235434,10.28231056
3.437253909,-1.136590719,9.972686768,-2.307877541,10.29915621
3.439760888,-1.194018483,10.01097202,-2.389233351,10.36116195
3.442267607,-1.280160069,10.04447079,-2.53280282,10.43768621
3.444774326,-1.304088354,10.12582684,-2.714657307,10.56420275
3.447281149,-1.39022994,10.25085258,-3.045464993,10.78367169
3.449787711,-1.43808639,10.41835022,-3.634099483,11.12729944
3.452294274,-1.466800332,10.63370419,-4.342973232,11.57966253
3.454800888,-1.447657704,10.90648556,-5.094917774,12.12457534
3.457307659,-1.39022994,11.23190975,-5.50169754,12.58400619
3.459814586,-1.227517962,11.62971592,-5.382056236,12.87336871
3.462321565,-0.993021369,12.07478142,-4.759324074,13.01682002
3.464828544,-0.6574280262,12.52523041,-3.691527128,13.07443998
3.467335367,-0.394217521,12.97986603,-2.652443886,13.25397254
3.46984219,-0.2410768867,13.3770752,-1.9585253,13.52183716
3.472349169,-0.1501496136,13.66959763,-1.791027784,13.78724863
3.474856201,-0.1214357466,13.88973713,-2.159522533,14.05713633
3.477363284,-0.107078813,14.07159138,-2.820539713,14.35188469
3.479870472,-0.09272187948,14.11466217,-3.370888948,14.5118978
3.482377399,-0.02572284266,14.06680584,-3.772883177,14.56400823
3.484884482,0.05084748194,14.02852058,-3.806382656,14.53583586
3.487391513,0.2135594189,13.91845131,-3.504886866,14.35455072
3.489898336,0.366700083,13.72223949,-2.940180779,14.03848242
3.492405524,0.4725824594,13.54935837,-2.264806747,13.74546456
3.494912503,0.5347958803,13.3770752,-1.47457695,13.46872394
3.497419222,0.5300102234,13.19043446,-0.9002995491,13.23174256
3.499926201,0.5347958803,13.04686546,-0.6179464459,13.07243523
3.502432919,0.4486542344,12.92243862,-0.7902296782,12.9543496
3.504939534,0.342771858,12.80279732,-1.072582722,12.85221947
3.507446461,0.242273286,12.67358494,-1.412363529,12.75434131
3.509953284,0.1992024779,12.60658646,-1.642074585,12.71464166
3.512459951,0.1417747438,12.57308674,-1.65164578,12.68189828
3.514966617,0.1322034448,12.55394363,-1.613360643,12.65787941
3.51747318,0.1226321608,12.54437256,-1.436291814,12.62692582
3.519979951,0.1274178028,12.59701443,-1.000798106,12.63734959
3.522486669,0.2087737769,12.64008522,-0.4833501875,12.65104613
3.52499344,0.261415869,12.72622681,-0.04307080805,12.72898433
3.527500055,0.2279163599,12.80758286,0.2679961324,12.81241376
3.530006722,0.2087737769,12.90329647,0.4929214716,12.91439576
3.532513336,0.1226321608,12.94158173,0.3876372576,12.94796659
3.535019951,0.05563312769,12.94158173,0.09092725813,12.94202072
3.537526565,0.007776673418,12.9511528,-0.2679961324,12.95392764
3.540033232,-0.001794616925,12.87458229,-0.6083751321,12.88894847
3.542540159,-0.01136590727,12.7310133,-0.9002995491,12.76281192
3.545046826,0.01734796353,12.56351566,-1.163509965,12.61728902
3.547553492,0.05563312769,12.34277725,-1.359721422,12.41757173
3.550059794,0.1896311939,12.08435249,-1.599003673,12.1911586
3.552566097,0.304486692,11.85464191,-1.963310957,12.01997658
3.555072503,0.4295116663,11.59143066,-2.365305185,11.83809164
3.557579065,0.5060819983,11.35693455,-2.776870728,11.70243959
3.560085419,0.6448656917,11.10269737,-3.093321562,11.54358605
3.562592086,0.7501499057,10.9112711,-3.366103172,11.44330426
3.565098961,0.8267202377,10.71027374,-3.605385542,11.33102974
3.567605576,0.8793623447,10.52841949,-3.715455294,11.1993528
3.570112294,0.8697910309,10.33699417,-3.806382656,11.04982054
3.572618961,0.836291492,10.18804073,-3.835096598,10.91803661
3.57512568,0.7597211599,10.03011417,-3.887738705,10.78401033
3.577632503,0.6640082598,9.886545181,-3.882952929,10.6424624
3.580139378,0.5204389095,9.752547264,-3.882952929,10.51001229
3.582646305,0.4049852192,9.60419178,-3.796811342,10.33539013
3.585153024,0.2566302419,9.474979401,-3.748954773,10.19292674
3.587659847,0.08434699476,9.331410408,-3.72024107,10.04602052
3.590166722,-0.08793623,9.183054924,-3.629313707,9.874621436
3.592673753,-0.3655036688,9.029315948,-3.447459221,9.671975729
3.595180628,-0.7154539824,8.87617588,-3.337389469,9.509812886
3.597687555,-1.155733347,8.766105652,-3.303889751,9.439068564
3.600194482,-1.682154298,8.64167881,-3.409173965,9.440906888
3.602701149,-2.209173441,8.579465866,-3.70588398,9.603189986
3.605207972,-2.812164783,8.488538742,-4.007977962,9.799359576
3.607714847,-3.458825111,8.431110382,-4.299902439,10.07651996
3.610221722,-3.990031719,8.373682976,-4.649254322,10.37566795
3.612728597,-4.497908592,8.316255569,-5.181059361,10.78121814
3.615235315,-4.938187599,8.330612183,-5.769693375,11.27271741
3.617741826,-5.345565796,8.368897438,-6.497709751,11.86733964
3.620248544,-5.714060307,8.349754333,-7.263412952,12.45496087
3.622755263,-6.068198204,8.392825127,-7.565506935,12.82573344
3.625262034,-6.418148518,8.507680893,-7.503293514,13.03352133
3.627768961,-6.820142746,8.660821915,-7.253841877,13.19630271
3.630275732,-7.183851719,8.81874752,-6.832705021,13.26890694
3.632782555,-7.634300709,8.995817184,-6.387639999,13.41675143
3.635289222,-8.151150703,9.235696793,-5.865406513,13.64339938
3.63779594,-8.73559761,9.388837814,-5.362913609,13.90042386
3.640302763,-9.247661591,9.522835732,-5.075775146,14.2115143
3.642809482,-9.664012909,9.608977318,-5.046463013,14.53245951
3.645316357,-10.00917721,9.675976753,-5.051846981,14.80977084
3.647822919,-10.18146038,9.690333366,-5.070989609,14.94254436
3.65032943,-10.13360405,9.599406242,-5.01774931,14.83294776
3.652836097,-9.923035622,9.460622787,-4.864608288,14.54766075
3.655342815,-9.688538551,9.331410408,-4.534399033,14.1952025
3.657849794,-9.31944561,9.125627518,-4.17069006,13.69393295
3.660356669,-8.917451859,8.900103569,-3.820739508,13.16551714
3.66286344,-8.486145973,8.732605934,-3.528815269,12.67776073
3.665370263,-8.074580193,8.469395638,-3.260818958,12.14752847
3.667877138,-7.610372543,8.244470596,-2.978466034,11.60863151
3.670383909,-7.174280643,7.990831375,-2.714657307,11.07668963
3.672890628,-6.74835825,7.717451096,-2.595016241,10.57513592
3.675397451,-6.308078766,7.415955544,-2.604587555,10.07829999
3.677904274,-5.857629776,7.109674454,-2.705085993,9.600874317
3.680411044,-5.383851051,6.802794933,-2.868396044,9.137371992
3.682917815,-4.919044971,6.486942291,-3.031108141,8.68706166
3.685424586,-4.48833704,6.20458889,-3.256033421,8.321288741
3.687931201,-4.081557274,5.907878876,-3.413959742,7.950928481
3.690437919,-3.688536167,5.634499073,-3.586242914,7.629811079
3.69294469,-3.391826153,5.41435957,-3.634099483,7.350268924
3.695451305,-3.114258766,5.194219589,-3.744169235,7.12020562
3.697958076,-2.89830637,4.954937458,-3.825525284,6.898277229
3.700464794,-2.759522676,4.801796913,-3.936193228,6.794544585
3.702971461,-2.644667149,4.667798996,-3.955335855,6.665380223
3.705477972,-2.534597397,4.509274483,-3.979264021,6.52627631
3.707984794,-2.548954248,4.403990269,-3.969692707,6.453739864
3.710491669,-2.548954248,4.317848682,-3.93140769,6.371573701
3.712998336,-2.644667149,4.236492634,-3.89730978,6.33491576
3.715504847,-2.76909399,4.236492634,-3.835096598,6.350095848
3.718011305,-2.965903759,4.193421841,-3.777668715,6.375904074
3.720517815,-3.190829039,4.260420799,-3.748954773,6.510548151
3.723024378,-3.497110367,4.303491592,-3.648456335,6.637850136
3.72553094,-3.803391695,4.384847641,-3.638885021,6.850851146
3.728037242,-4.129413605,4.49970293,-3.586242914,7.082409295
3.730543649,-4.402195454,4.615156651,-3.648456335,7.34780439
3.733049899,-4.698905468,4.753940582,-3.839882135,7.708719639
3.735556409,-4.957330227,4.892724037,-4.017549038,8.040806661
3.738062815,-5.115256786,4.988437176,-3.882952929,8.131892823
3.740569378,-5.29292345,5.132006168,-3.538386583,8.177573331
3.743075836,-5.407779217,5.237290382,-3.059821844,8.126241217
3.745582399,-5.508277893,5.347360611,-2.53280282,8.083964434
3.748088805,-5.594419479,5.443073273,-2.216950178,8.114150852
3.750595263,-5.670989513,5.543571949,-2.073380709,8.196964046
3.753101826,-5.742774487,5.624927998,-2.130808592,8.31622625
3.755608388,-5.804987907,5.639284611,-2.365305185,8.431730792
3.758115003,-5.795416355,5.658427238,-2.700300455,8.537931371
3.760621669,-5.685346603,5.735595703,-2.997608662,8.614283589
3.76312844,-5.608776093,5.715855122,-3.241676569,8.639319186
3.765635211,-5.469992638,5.740381718,-3.428316593,8.638643203
3.76814193,-5.2737813,5.759523869,-3.509672642,8.561698806
3.770648336,-5.024329185,5.773880959,-3.457030535,8.398371581
3.773154951,-4.770689964,5.816951752,-3.308675528,8.218500116
3.775661826,-4.50269413,5.864808083,-3.06460762,8.003877069
3.778168492,-4.239483356,5.903093338,-2.762513638,7.775037729
3.780675159,-4.086342812,5.998806477,-2.547159672,7.692327288
3.783181878,-4.013959885,6.123233318,-2.43708992,7.716558009
3.78568844,-3.975674868,6.238088608,-2.42273283,7.783917683
3.788195107,-4.018745422,6.305087566,-2.484946251,7.879048284
3.790701774,-4.148556232,6.43908596,-2.580659151,8.082830474
3.793208492,-4.320839405,6.573083878,-2.738585472,8.329161735
3.795715263,-4.569693089,6.649653912,-2.839682341,8.553583335
3.798221774,-4.852046013,6.793223381,-2.997608662,8.869943185
3.80072844,-5.192425251,6.894320011,-3.136392355,9.18313048
3.803234899,-5.575276852,7.028318405,-3.256033421,9.543727008
3.805741461,-5.996413708,7.147959232,-3.380460262,9.923598648
3.80824818,-6.475576401,7.277172089,-3.466601849,10.33961565
3.810755159,-6.997211456,7.392027378,-3.667598963,10.81916444
3.813262034,-7.557730198,7.535596848,-3.93140769,11.37367452
3.815768805,-8.132007599,7.674380302,-4.252045631,11.96267331
3.818275524,-8.639883995,7.803592682,-4.505684853,12.48378349
3.820782294,-9.1423769,7.88494873,-4.620540619,12.92690479
3.823289169,-9.616155624,7.986045361,-4.572684288,13.31002671
3.825795992,-9.918250084,8.024331093,-4.34775877,13.47830036
3.828302867,-10.23410225,8.038687706,-4.060619831,13.63253396
3.830809847,-10.41117096,8.005187988,-3.753740549,13.65891956
3.833316669,-10.57866859,7.928019524,-3.500101328,13.67524889
3.835823597,-10.63609695,7.784450054,-3.3852458,13.60823685
3.838330419,-10.58824062,7.593024254,-3.318246841,13.4452824
3.840837242,-10.51167011,7.401598454,-3.332603693,13.28100582
3.843344013,-10.34895802,7.19581604,-3.323032379,13.03546105
3.845850888,-10.07617569,6.966104984,-3.375674486,12.70634146
3.848357763,-9.750752449,6.73100996,-3.413959742,12.33040103
3.850864222,-9.415159225,6.549155712,-3.39960289,11.96218891
3.853371044,-8.970093727,6.42472887,-3.394817114,11.54402468
3.855877711,-8.568099976,6.281159401,-3.380460262,11.14866863
3.858384274,-8.155936241,6.242874146,-3.337389469,10.79958064
3.860890836,-7.749155998,6.175875187,-3.251247883,10.42887654
3.863397451,-7.384849072,6.24766016,-3.260818958,10.20794757
3.865904117,-7.045068264,6.324230194,-3.236890793,10.00531541
3.868410784,-6.73400116,6.486942291,-3.256033421,9.900956799
3.870917451,-6.466004848,6.678368092,-3.299104214,9.863767418
3.873424169,-6.183053493,6.865606308,-3.394817114,9.843347181
3.875930628,-5.982056618,7.143173695,-3.413959742,9.922955856
3.878437138,-5.718846321,7.38724184,-3.457030535,9.961305405
3.880943909,-5.503491879,7.636095047,-3.49531579,10.04069733
3.883450419,-5.30728054,7.889734268,-3.547957659,10.14904612
3.885957138,-5.115256786,8.15832901,-3.543172121,10.26051913
3.888463857,-4.895116806,8.411968231,-3.547957659,10.3591207
3.890970576,-4.674977303,8.617751122,-3.49531579,10.40856761
3.893477399,-4.483551502,8.842676163,-3.524029493,10.52206917
3.895984117,-4.29691124,9.029315948,-3.528815269,10.60398651
3.898490992,-4.172484398,9.206983566,-3.681955814,10.75801892
3.900997607,-4.028316975,9.345767021,-3.873381615,10.88915901
3.903504326,-3.923032761,9.508479118,-4.070191383,11.06199887
3.906010992,-3.784249067,9.513264656,-4.208974838,11.06969804
3.908517711,-3.698107481,9.623334885,-4.304687977,11.17205943
3.911024326,-3.62153697,9.618548393,-4.275974274,11.13175454
3.913530992,-3.640679598,9.60419178,-4.242474556,11.11276914
3.916037711,-3.760320902,9.599406242,-4.204189301,11.13390413
3.918544378,-3.913461447,9.556335449,-4.194618225,11.14601049
3.92105094,-4.172484398,9.522835732,-4.180261135,11.20574003
3.923557399,-4.521836758,9.479764938,-4.189832687,11.30785784
3.926064013,-4.842474937,9.431908607,-4.189832687,11.40022638
3.928570836,-5.206781864,9.39840889,-4.247260094,11.55334953
3.931077555,-5.589633465,9.379266739,-4.237689018,11.71207305
3.933584169,-5.982056618,9.42712307,-4.189832687,11.92519806
3.936090836,-6.327221394,9.436694145,-4.132404804,12.08973517
3.938597399,-6.662216663,9.508479118,-4.055834293,12.29821523
3.941103909,-6.944569588,9.541978836,-3.974478483,12.45282643
3.943610628,-7.222136974,9.647262573,-3.863810301,12.65535332
3.946117347,-7.42313385,9.73340416,-3.825525284,12.82484762
3.948624065,-7.610372543,9.829116821,-3.868596077,13.01903773
3.95113068,-7.768298626,9.934401512,-3.93140769,13.2096466
3.953637347,-7.883154392,10.02532864,-4.055834293,13.382867
3.956144169,-7.897511005,10.09711361,-4.194618225,13.48766864
3.95865094,-7.897511005,10.17368412,-4.285545349,13.57351935
3.961157867,-7.820940971,10.19761181,-4.33340168,13.56232924
3.963664378,-7.739584923,10.20718288,-4.309473515,13.51515147
3.96617094,-7.624729156,10.22692394,-4.242474556,13.44340204
3.968677294,-7.481160164,10.19282627,-4.146761417,13.30628029
3.971183701,-7.313064098,10.12582684,-3.993621111,13.11343911
3.973690367,-7.145566463,10.10668468,-3.81595397,12.95243993
3.976196878,-6.982854843,10.0205431,-3.619742393,12.73868442
3.978703388,-6.753143787,9.958329201,-3.452244759,12.51763817
3.981209951,-6.533003807,9.896116257,-3.169891834,12.27442341
3.983716565,-6.302694798,9.829116821,-3.011965513,12.05850055
3.98622318,-6.101697922,9.76211834,-2.897109985,11.87109592
3.988729638,-5.871986866,9.690333366,-2.839682341,11.68103533
3.991236305,-5.580062389,9.63290596,-2.825325251,11.48531394
3.99374318,-5.364708424,9.599406242,-2.892324448,11.37076239
3.996249847,-5.086542606,9.518050194,-3.055036306,11.21603504
3.998756253,-4.842474937,9.441479683,-3.174677372,11.07563445
4.001262919,-4.564907551,9.364909172,-3.227319479,10.90667208
4.003769378,-4.301696777,9.293125153,-3.318246841,10.7646427
4.00627594,-3.994817495,9.192625999,-3.246462107,10.5357703
4.008782555,-3.726821184,9.053244591,-3.203391314,10.30107517
4.011289274,-3.511467218,9.010173798,-3.122035265,10.16172909
4.013795992,-3.329612732,8.895318031,-3.136392355,10.00249773
4.016302503,-3.152543783,8.861818314,-3.203391314,9.936401362
4.018809013,-3.042474031,8.77089119,-3.351746321,9.870125829
4.021315524,-2.970689297,8.737391472,-3.476173162,9.861581237
4.023822138,-2.946761131,8.718249321,-3.643670797,9.897858822
4.026328701,-2.888735056,8.665607452,-3.696312666,9.853946928
4.028835472,-2.831307411,8.636893272,-3.787240028,9.846594035
4.031342294,-2.831307411,8.632107735,-3.806382656,9.8497784
4.033848753,-2.821736097,8.651249886,-3.830310822,9.873074505
4.036355315,-2.855235577,8.675178528,-3.825525284,9.901804703
4.03886219,-2.89830637,8.69910717,-3.806382656,9.927899793
4.041369065,-2.922234535,8.790034294,-3.701098442,9.97508332
4.043875992,-2.985046148,8.87617588,-3.634099483,10.04508227
4.046382919,-3.052045345,8.885746956,-3.5766716,10.05306219
4.048889794,-3.119044304,8.938388824,-3.533600807,10.10492785
4.051396565,-3.186043262,9.000602722,-3.500101328,10.16919025
4.053903128,-3.248256683,9.048459053,-3.524029493,10.23936358
4.056409899,-3.30089879,9.048459053,-3.433102369,10.22529882
4.058916774,-3.320041418,9.00538826,-3.313461065,10.15375384
4.061423492,-3.310470104,8.97667408,-3.136392355,10.068607
4.063930367,-3.329612732,8.919246674,-2.901895761,9.952903153
4.066437138,-3.305684566,8.890532494,-2.690729141,9.85946965
4.068944013,-3.339184046,8.82831955,-2.508874655,9.766464467
4.071450888,-3.367897987,8.727820396,-2.480160713,9.678263423
4.073957711,-3.353540897,8.636893272,-2.432304144,9.579053471
4.07646443,-3.33439827,8.541180611,-2.43708992,9.487327618
4.078971305,-3.272184849,8.478966713,-2.43708992,9.409541832
4.081478076,-3.138186932,8.383254051,-2.403590441,9.268463341
4.083984794,-3.01376009,8.330612183,-2.42273283,9.184306375
4.086491513,-2.840878725,8.30668354,-2.42273283,9.107206912
4.088998336,-2.687737942,8.301898003,-2.508874655,9.079641938
4.091505003,-2.429313183,8.388039589,-2.642872572,9.123899721
4.094011982,-2.166102648,8.598608017,-2.892324448,9.327036036
4.096518857,-1.80658114,9.029315948,-3.189034462,9.744856218
4.099025472,-1.323230863,9.690333366,-3.318246841,10.32783921
4.101532138,-0.6669993401,10.73420238,-3.026322365,11.17258323
4.104038909,0.261415869,12.13699436,-1.992024899,12.30215971
4.106545732,1.424925923,13.942379,0.1052841991,14.01539977
4.109052503,2.904886723,15.98704624,2.815753937,16.49098192
4.11155943,4.518247128,18.15135384,5.51605463,19.5016169
4.114066201,6.041278839,20.11885262,7.340581894,22.25195324
4.116572919,7.1563344,21.61795616,7.862216949,24.09073693
4.119079482,7.664210796,22.44108772,7.062416077,24.74308522
4.121586097,7.41535759,22.47937202,5.482554913,24.29749171
4.124092867,6.716054916,21.87159538,3.739383698,23.1830772
4.12659969,5.734399319,20.78944206,2.035095692,21.66162162
4.129106565,4.824528694,19.41057777,0.3302095234,20.00389075
4.131613492,4.039682865,17.91625977,-1.369292736,18.4170129
4.134120367,3.388236761,16.326828,-2.834896564,16.91396167
4.136627138,2.876172781,14.79003716,-3.787240028,15.53578952
4.139133805,2.497508526,13.34836102,-4.007977962,14.1591023
4.141640784,2.344367981,11.95035458,-3.509672642,12.67378546
4.144147659,2.272583246,10.70070267,-2.523231506,11.22659207
4.14665443,2.234298229,9.5754776,-1.369292736,9.927578881
4.149161253,2.215155602,8.665607452,-0.4307080805,8.954617597
4.151667867,2.191227436,7.947162151,0.05264209956,8.243884711
4.154174794,2.023729801,7.396812916,-0.1339980662,7.669829144
4.156681617,1.837089539,6.966104984,-0.694516778,7.237670218
4.159188388,1.453639746,6.582654953,-1.714457393,6.955844945
4.161695367,0.9894321561,6.333801746,-2.791227579,6.991921907
4.16420219,0.328414917,6.118447304,-3.782454491,7.200709391
4.166709169,-0.4037888348,5.989234924,-4.634897232,7.583947043
4.169215836,-1.399801254,5.922235966,-5.348556995,8.101813644
4.171722555,-2.568096876,5.955735683,-6.01376152,8.84484238
4.174229586,-3.999603033,6.04187727,-6.674778938,9.851587651
4.176736409,-5.541777134,6.20458889,-7.331010342,11.08836912
4.179243128,-7.140780926,6.42472887,-7.785646915,12.3646347
4.181749899,-8.754739761,6.678368092,-7.867002487,13.53276752
4.184256669,-10.2149601,6.932605267,-7.450651646,14.41938402
4.186763388,-11.45025444,7.253243446,-6.468996048,15.0188474
4.189270003,-12.44626713,7.631309509,-5.128417015,15.47407869
4.191776774,-13.15514088,8.033902168,-3.634099483,15.83691872
4.194283701,-13.5714922,8.488538742,-2.154736757,16.15189094
4.196790576,-13.61456299,8.909674644,-0.9816554785,16.30037653
4.199297294,-13.35613823,9.240483284,-0.3062812984,16.24397636
4.201803909,-12.79561901,9.580264091,-0.1866401732,15.98574867
4.204310576,-11.92941761,9.771689415,-0.5653043389,15.43102354
4.206817555,-10.84726334,9.896116257,-1.412363529,14.7509664
4.209324586,-9.673583984,10.02532864,-2.413161755,14.13891053
4.211831253,-8.409575462,10.0779705,-3.452244759,13.57219374
4.214338232,-7.145566463,10.11625576,-4.228117466,13.0871971
4.216845003,-5.867201328,10.19761181,-4.778466702,12.69838895
4.219351774,-4.536193371,10.24606609,-4.945964336,12.24832576
4.221858336,-3.238685369,10.27956581,-4.850251675,11.81877733
4.224365055,-1.931606054,10.29870892,-4.529613495,11.41542403
4.226871774,-0.7298108935,10.33699417,-4.094119549,11.14216708
4.22937844,0.3762713671,10.3657074,-3.595814228,10.97813053
4.231885419,1.415354609,10.40399265,-3.093321562,10.94600064
4.234392294,2.286940336,10.39442158,-2.700300455,10.98024219
4.236899326,3.014956474,10.39920712,-2.499303341,11.11215498
4.239406305,3.579662561,10.38963604,-2.513660192,11.27284386
4.241913232,3.96789813,10.34177971,-2.556730986,11.36809115
4.244420159,4.293322086,10.32742214,-2.752942562,11.51811423
4.246927086,4.494318962,10.28435135,-3.002394199,11.61813912
4.249433961,4.676173687,10.26042366,-3.241676569,11.73249168
4.251940836,4.781457901,10.21735287,-3.366103172,11.7723103
4.254447503,4.881956577,10.15932655,-3.3852458,11.76882769
4.256954222,4.997410297,10.09232807,-3.318246841,11.7405263
4.259461097,5.078765869,10.05404282,-3.198605776,11.70934322
4.261967711,5.045266628,10.03489971,-3.102892876,11.65254787
4.264474638,4.992624283,9.96790123,-2.978466034,11.53935059
4.266981357,4.877170563,9.924830437,-2.940180779,11.4426271
4.269488336,4.661816597,9.876974106,-2.973680258,11.319449
4.271995263,4.312464714,9.848259926,-3.069393158,11.18064175
4.27450219,3.896113396,9.776474953,-3.19382,10.99816568
4.277009326,3.393022537,9.723833084,-3.366103172,10.83495189
4.279516044,2.876172781,9.637691498,-3.552743435,10.6667452
4.282022972,2.243869543,9.556335449,-3.796811342,10.52493582
4.28452969,1.616949916,9.436694145,-3.955335855,10.35907357
4.287036513,0.9224331379,9.374481201,-4.122833252,10.2824868
4.289543492,0.2805584669,9.250054359,-4.228117466,10.17443836
4.292050367,-0.3846462369,9.173483849,-4.271188259,10.12639165
4.294557086,-0.9978070259,9.067601204,-4.299902439,10.08494777
4.297063805,-1.615155339,9.029315948,-4.180261135,10.08027065
4.299570524,-2.185245275,8.957531929,-4.079762459,10.0825164
4.30207719,-2.678166628,8.871390343,-4.017549038,10.10023977
4.304583961,-3.056830883,8.82831955,-4.022335052,10.1716577
4.30709068,-3.468396425,8.871390343,-4.046263218,10.34908626
4.309597347,-3.736392498,8.880961418,-4.0127635,10.43716319
4.312103909,-4.018745422,8.900103569,-3.960121393,10.53777584
4.314610419,-4.225126743,8.962317467,-3.892524242,10.64549554
4.317117034,-4.330410957,9.010173798,-3.887738705,10.72614577
4.319623701,-4.35912466,9.106484413,-3.882952929,10.81699356
4.322130472,-4.35912466,9.202198029,-3.854238987,10.88749625
4.324637294,-4.249054909,9.29791069,-3.830310822,10.91681693
4.327144013,-4.095914364,9.379266739,-3.748954773,10.89962481
4.329650628,-3.884747505,9.479764938,-3.806382656,10.92912418
4.332157242,-3.592823267,9.585049629,-3.825525284,10.92777192
4.334663909,-3.310470104,9.690333366,-3.763311863,10.90982535
4.337170524,-2.994617462,9.786046028,-3.677170277,10.87455801
4.339677242,-2.644667149,9.905687332,-3.59102869,10.86335091
4.342183909,-2.347957134,9.948758125,-3.528815269,10.81402923
4.34469068,-1.965105653,10.04447079,-3.457030535,10.8029669
4.34719719,-1.658226132,10.10189915,-3.433102369,10.7974197
4.349703805,-1.385444283,10.14496994,-3.390031576,10.78573989
4.352210211,-1.136590719,10.15454102,-3.361317635,10.75662577
4.354716878,-0.9164510965,10.18804073,-3.346960783,10.76281576
4.357223597,-0.6526423693,10.19282627,-3.361317635,10.752586
4.359730367,-0.4803591371,10.16411209,-3.3852458,10.72379637
4.362236982,-0.3655036688,10.1210413,-3.457030535,10.70140785
4.364743649,-0.2219343036,10.03968525,-3.500101328,10.63462477
4.367250315,-0.1262213886,9.982257843,-3.61017108,10.61577782
4.369756982,-0.06400800496,9.929615974,-3.696312666,10.59547534
4.372263597,-0.01615155302,9.867402077,-3.734597921,10.55050265
4.374770367,0.02691925503,9.771689415,-3.734597921,10.46106401
4.377277294,0.0652044192,9.719047546,-3.787240028,10.43107491
4.379784065,0.04127619043,9.652048111,-3.806382656,10.37556193
4.382290732,0.03170489892,9.60419178,-3.782454491,10.32223168
4.384797399,-0.02093719877,9.594620705,-3.792025566,10.31681359
4.387304222,-0.102293171,9.565906525,-3.830310822,10.30477135
4.389811097,-0.1740778536,9.537193298,-3.796811342,10.26665162
4.392317919,-0.2889333367,9.527621269,-3.772883177,10.25152169
4.394824638,-0.4229314029,9.551549911,-3.772883177,10.27840572
4.397331305,-0.566500783,9.513264656,-3.729812384,10.23399374
4.399837919,-0.7202396393,9.546764374,-3.681955814,10.25749744
4.40234469,-0.8733802438,9.546764374,-3.581457376,10.23378425
4.404851409,-1.060020447,9.556335449,-3.581457376,10.26031323
4.407358232,-1.19880414,9.532406807,-3.567100286,10.24832256
4.409865003,-1.366301775,9.565906525,-3.562314749,10.29871033
4.412371774,-1.524227977,9.537193298,-3.581457376,10.3008817
4.414878388,-1.663011789,9.537193298,-3.61017108,10.33232788
4.417385263,-1.797009826,9.537193298,-3.5766716,10.34310785
4.41989193,-1.907677889,9.537193298,-3.514458179,10.34160081
4.422398544,-2.008176327,9.532406807,-3.457030535,10.33685696
4.424905315,-2.041675806,9.537193298,-3.409173965,10.33193899
4.427411722,-2.084746838,9.541978836,-3.413959742,10.34652843
4.42991818,-2.118246317,9.498908043,-3.423531055,10.31682055
4.432424847,-2.089532375,9.484550476,-3.519243956,10.32995263
4.434931253,-2.089532375,9.489336014,-3.500101328,10.32784357
4.437437972,-2.041675806,9.451051712,-3.461816072,10.27010171
4.439944586,-1.989033818,9.412766457,-3.380460262,10.19725157
4.442451097,-1.92203474,9.431908607,-3.299104214,10.17542167
4.444957659,-1.787438512,9.393623352,-3.174677372,10.07539937
4.447464326,-1.710868239,9.379266739,-3.0981071,10.02476844
4.449970992,-1.658226132,9.393623352,-2.978466034,9.993054263
4.452477555,-1.548156261,9.355338097,-2.892324448,9.913862992
4.454984169,-1.409372568,9.336195946,-2.877967358,9.870845044
4.45749068,-1.337587833,9.331410408,-2.897109985,9.861927179
4.459997294,-1.165304661,9.29791069,-2.940180779,9.821086557
4.462504065,-1.05523479,9.273982048,-3.031108141,9.813657832
4.465010732,-0.8877372146,9.264410973,-3.16032052,9.828784962
4.467517503,-0.7585247755,9.273982048,-3.265604734,9.861352704
4.470024117,-0.537786901,9.259625435,-3.351746321,9.862255388
4.472530836,-0.3990031779,9.264410973,-3.533600807,9.923449444
4.475037815,-0.2554338276,9.312267303,-3.638885021,10.00125257
4.477544742,-0.08315058798,9.312267303,-3.691527128,10.01761493
4.480051565,0.02691925503,9.312267303,-3.72024107,10.02792304
4.482558336,0.07956135273,9.355338097,-3.744169235,10.07707716
4.485065159,0.1034895778,9.355338097,-3.782454491,10.09158179
4.487572034,0.06999006122,9.403194427,-3.792025566,10.13925155
4.490078857,-0.03529413417,9.441479683,-3.887738705,10.21064623
4.492585576,-0.1214357466,9.460622787,-3.984049797,10.26600131
4.495092347,-0.2219343036,9.465408325,-4.055834293,10.3001457
4.497599222,-0.394217521,9.513264656,-4.180261135,10.39866314
4.500106044,-0.509073019,9.494122505,-4.256831646,10.41720371
4.502612867,-0.6861419082,9.556335449,-4.252045631,10.48209092
4.505119899,-0.8111668825,9.570692062,-4.185046673,10.4771539
4.507626774,-1.00737834,9.565906525,-4.046263218,10.43521082
4.510133544,-1.179661512,9.580264091,-3.945764542,10.42794894
4.512640524,-1.366301775,9.580264091,-3.873381615,10.42359466
4.515147086,-1.572084427,9.5754776,-3.887738705,10.45350338
4.517654013,-1.734796405,9.551549911,-3.882952929,10.45557018
4.520160472,-1.850250125,9.503693581,-3.844667673,10.41753746
4.52266719,-1.984248161,9.489336014,-3.80159688,10.41330291
4.525174065,-2.099103689,9.494122505,-3.696312666,10.40227503
4.527680888,-2.199602127,9.474979401,-3.543172121,10.35217624
4.530187711,-2.300100803,9.470193863,-3.409173965,10.32460666
4.53269469,-2.33838582,9.446265221,-3.279961586,10.26928054
4.535201669,-2.371885538,9.422337532,-3.179463148,10.22327108
4.537708649,-2.443670034,9.441479683,-3.083750248,10.22851785
4.54021568,-2.419741869,9.436694145,-3.112463951,10.22711
4.542722555,-2.419741869,9.465408325,-3.150749207,10.26529717
4.54522969,-2.35274291,9.460622787,-3.217748165,10.266094
4.547736565,-2.276172638,9.45583725,-3.294318676,10.26870759
4.550243336,-2.180459738,9.489336014,-3.299104214,10.28036922
4.552750107,-2.075175524,9.532406807,-3.256033421,10.28469186
4.555256878,-1.917249203,9.613762856,-3.270390272,10.33420211
4.557763597,-1.801795483,9.661619186,-3.308675528,10.37018254
4.560270367,-1.682154298,9.728618622,-3.418745279,10.44813297
4.562777138,-1.567298889,9.80997467,-3.543172121,10.54732656
4.565283961,-1.442872047,9.891330719,-3.710669756,10.6625219
4.567790836,-1.366301775,9.991828918,-3.887738705,10.80823473
4.570297399,-1.261017561,10.05882835,-3.892524242,10.85918681
4.572804117,-1.217946768,10.08754253,-3.921238184,10.89118991
4.575311044,-1.179661512,10.18804073,-3.873381615,10.96315923
4.577818024,-1.203589797,10.24128056,-3.873381615,11.0152413
4.580324899,-1.19880414,10.25563812,-3.868596077,11.02639017
4.582831722,-1.24666059,10.27956581,-3.854238987,11.04892728
4.585338701,-1.361516118,10.25563812,-3.921238184,11.06381256
4.587845524,-1.481157184,10.1832552,-3.926023722,11.01390826
4.590352555,-1.557727575,10.1210413,-3.734597921,10.89996394
4.592859326,-1.715653777,10.00139999,-4.180261135,10.9747917
4.595366253,-1.917249203,9.829116821,-5.669195175,11.50769985
4.59787318,-2.175673962,9.594620705,-6.602993965,11.84862156
4.600380055,-2.309672117,9.369695663,-6.622136593,11.70378038
4.602886878,-2.223530531,9.178269386,-6.392425537,11.40385116
4.605393544,-2.046461582,9.00538826,-6.378068924,11.22340349
4.607900367,-1.955534339,9.0921278,-6.46421051,11.32594014
4.610407399,-2.142174482,9.364909172,-5.82233572,11.23343352
4.612914169,-2.515454769,9.752547264,-4.247260094,10.93064084
4.615420836,-2.788236618,10.13061333,-2.599801779,10.82416552
4.617927867,-2.812164783,10.47577763,-1.700100541,10.97909511
4.620434638,-2.659024239,10.69591713,-1.493719578,11.12224129
4.622941253,-2.57766819,10.78684425,-1.724028707,11.22375415
4.625448024,-2.38624239,10.7677021,-2.183450699,11.24299863
4.627954742,-2.113460541,10.66241741,-2.882753134,11.24562698
4.630461722,-1.619940877,10.52841949,-3.538386583,11.22461603
4.632968284,-1.117448211,10.38963604,-3.614956856,11.05717598
4.635475055,-0.6574280262,10.1832552,-3.0981071,10.66438773
4.63798193,-0.2506481707,10.00618649,-2.575873613,10.33545922
4.640488701,0.02213360928,9.843474388,-2.528017044,10.16293993
4.642995628,0.1274178028,9.78126049,-3.035893679,10.2423602
4.645502607,0.1322034448,9.738189697,-3.681955814,10.41184974
4.648009586,-0.01615155302,9.819545746,-4.161118507,10.66483224
4.650516565,-0.2841476798,9.905687332,-4.395615101,10.8408862
4.653023336,-0.537786901,10.01097202,-4.290330887,10.90484822
4.655530055,-0.8207381964,10.09711361,-4.007977962,10.89445739
4.658036982,-1.016949654,10.2221384,-3.772883177,10.94353451
4.660544013,-1.146162033,10.28913784,-3.662813187,10.98163218
4.663051201,-1.194018483,10.40399265,-3.653241873,11.09120911
4.665558024,-1.165304661,10.47577763,-3.772883177,11.19528916
4.668065211,-1.107876897,10.46620655,-3.873381615,11.21480967
4.670572294,-1.031306505,10.48056316,-3.974478483,11.25621058
4.673079274,-0.9547362328,10.47099209,-3.993621111,11.24731995
4.675586409,-0.8255237937,10.39920712,-3.950550079,11.15490224
4.678093336,-0.6622136831,10.34656525,-3.868596077,11.06598278
4.680600367,-0.513858676,10.29870892,-3.825525284,10.99827713
4.683107399,-0.418145746,10.25563812,-3.734597921,10.92246221
4.685614222,-0.3080759048,10.20718288,-3.662813187,10.84885679
4.688121044,-0.2219343036,10.1401844,-3.629313707,10.77239586
4.690627919,-0.2123630047,10.09711361,-3.729812384,10.76607179
4.693134742,-0.2697907388,10.03968525,-3.715455294,10.70853281
4.695641826,-0.2841476798,9.982257843,-3.62452817,10.6237195
4.698148753,-0.3320041299,9.982257843,-3.528815269,10.59283888
4.700655419,-0.3990031779,9.977472305,-3.409173965,10.55138021
4.703162138,-0.485144794,9.953543663,-3.241676569,10.47935417
4.705668961,-0.513858676,10.00618649,-3.083750248,10.48319294
4.708175784,-0.5760720372,10.01575756,-2.868396044,10.43431619
4.710682555,-0.6287141442,10.06361389,-2.7577281,10.45354822
4.713189326,-0.6622136831,10.09232807,-2.647658348,10.45484135
4.715696253,-0.7010970116,10.15932655,-2.542374134,10.49605256
4.718202867,-0.7250252366,10.17846966,-2.499303341,10.50587566
4.720709638,-0.7106683254,10.22692394,-2.494517565,10.55071754
4.723216461,-0.7202396393,10.26042366,-2.451446772,10.57377086
4.72572318,-0.7106683254,10.28913784,-2.379662037,10.58462084
4.728230003,-0.7010970116,10.34656525,-2.255235434,10.6126828
4.730736617,-0.7106683254,10.3848505,-2.19780755,10.63863372
4.733243649,-0.7298108935,10.48056316,-2.202593327,10.73434886
4.735750263,-0.7393822074,10.49013424,-2.283949137,10.76132083
4.73825693,-0.7345965505,10.60020447,-2.355733871,10.88363216
4.740763649,-0.7968099117,10.71506023,-2.456232548,11.02181928
4.743270524,-0.8303094506,10.87298584,-2.590230465,11.20805642
4.745777555,-0.8494520187,11.08355427,-2.844467878,11.47422073
4.748284482,-0.9260223508,11.33779144,-3.246462107,11.82973154
4.750791409,-1.012163997,11.62971592,-3.806382656,12.27857147
4.75329818,-1.045663476,12.02692509,-4.275974274,12.80719701
4.755805003,-0.9595218897,12.48215961,-4.36211586,13.25718845
4.758312034,-0.7824530005,12.91286755,-3.955335855,13.52771461
4.760818961,-0.5282155871,13.42971706,-3.112463951,13.79578718
4.76332568,-0.2985046208,13.91366577,-2.202593327,14.09008934
4.765832711,-0.08793623,14.33480263,-1.6181463,14.42611162
4.76833969,0.06999006122,14.66501141,-1.37886405,14.72985826
4.770846565,0.1417747438,14.90967751,-1.5224334,14.98787466
4.773353544,0.2183450609,15.05324745,-1.867598057,15.17022926
4.775860419,0.328414917,15.09631824,-2.32701993,15.27814461
4.778367034,0.3954139352,15.00539112,-2.772084951,15.2644217
4.780873857,0.4917250574,14.90489197,-2.863610506,15.18544906
4.783380576,0.6113662124,14.77089405,-2.504088879,14.99411687
4.78588719,0.7645068169,14.63629818,-1.939382792,14.78400828
4.788393805,0.9607182741,14.49751377,-1.311864972,14.58841578
4.790900732,1.171286702,14.37787342,-0.8620143533,14.45123612
4.793407607,1.271785259,14.27737427,-0.6323033571,14.34784518
4.795914482,1.324427366,14.21037579,-0.6562315822,14.28704055
4.798421201,1.300499082,14.21516132,-0.9529415965,14.30629956
4.800928076,1.343569875,14.23908901,-1.287936807,14.36020951
4.803434847,1.357926846,14.29173183,-1.335793257,14.41811041
4.805941617,1.467996716,14.3874445,-0.9720842242,14.49477565
4.80844844,1.482353687,14.53101349,-0.4211367965,14.61249745
4.810955315,1.506281853,14.65065479,0.1435693651,14.72858388
4.813462242,1.453639746,14.70389557,0.5503492355,14.78582083
4.815968961,1.348355532,14.68415451,0.72323066,14.76365534
4.81847568,1.161715388,14.58844185,0.6370890141,14.64848458
4.820982347,1.022931695,14.40180111,0.2919243574,14.44103474
4.823488857,0.7932206988,14.20080376,-0.08614161611,14.223201
4.82599568,0.6113662124,13.88973713,-0.3637090325,13.90794199
4.828502555,0.4773681164,13.56371498,-0.5748756528,13.58428233
4.83100943,0.4193421602,13.21914864,-0.6993024349,13.24427282
4.833516201,0.3762713671,12.83629704,-0.7615157962,12.86436971
4.836023024,0.3571287692,12.47737408,-0.8189435601,12.50931946
4.838529951,0.242273286,12.12742329,-0.9481559992,12.16684395
4.84103693,0.1609173268,11.79242802,-1.024726272,11.83796084
4.843543649,0.002991028363,11.495718,-1.244866014,11.56292492
4.846050524,-0.1262213886,11.23190975,-1.555932879,11.33987018
4.848557242,-0.1788634956,10.97827053,-1.977667928,11.15641459
4.851063857,-0.2650051117,10.79641533,-2.413161755,11.0659912
4.853570628,-0.2937189937,10.63370419,-2.729014158,10.98223355
4.856077503,-0.3272185028,10.46620655,-3.102892876,10.92137792
4.85858443,-0.394217521,10.37049294,-3.461816072,10.94014176
4.861091409,-0.485144794,10.24606609,-3.739383698,10.91788561
4.863598232,-0.6382854581,10.15932655,-4.022335052,10.94525028
4.866104638,-0.8111668825,10.01097202,-4.34775877,10.9444305
4.868611305,-1.026520967,9.905687332,-4.53918457,10.94443162
4.871117659,-1.275374413,9.76211834,-4.692325115,10.90611981
4.873624222,-1.581655741,9.642477036,-4.749752998,10.86458245
4.876130836,-1.979462504,9.470193863,-4.821537495,10.80972097
4.878637451,-2.35274291,9.302696228,-4.835894585,10.74529817
4.881144169,-2.76909399,9.12084198,-4.811966419,10.67767113
4.883650732,-3.166900873,8.924032211,-4.773681164,10.60451055
4.88615719,-3.549752474,8.742177963,-4.677968502,10.53137254
4.888663649,-3.937389612,8.536395073,-4.510470867,10.42676485
4.891170576,-4.335196495,8.325826645,-4.319045067,10.33283447
4.893677347,-4.703691006,8.134400368,-4.185046673,10.28629156
