Time (s),Gyroscope x (rad/s),Gyroscope y (rad/s),Gyroscope z (rad/s),Absolute (rad/s)
0.071013453,-0.00358670298010111,-0.00164803094230592,0.00169380963779986,0.00429528058959687
0.081013453,0.00408494472503662,0.00301819620653987,-0.00197699829004705,0.00545021137082087
0.091013453,-0.00344085018150508,-0.00251995422877371,-0.000285318034002557,0.00427446203249078
0.101013453,-0.00199296767823398,-0.00244223698973656,-0.00241455691866577,0.00397070860099297
0.111013453,0.00493983458727598,-0.00201213080435991,0.00198764447122812,0.00569221983654056
0.121013453,0.00411156052723527,0.00347385345958173,-0.000211859281989746,0.00538678681433861
0.131013453,-0.00430638575926423,-0.00395293207839131,-0.00308207329362631,0.0066083134089761
0.141013453,0.00206536171026528,-0.00491854222491384,-0.00254124659113586,0.00590895175555275
0.151013453,-0.000603639229666442,-8.09110788395628E-05,-0.00110401038546115,0.00126085917273792
0.161013453,-0.00483017880469561,-0.00364312785677612,-0.00200148462317884,0.00637251508926971
0.171013453,-0.00250717881135643,0.00137974682729691,-0.000386456871638075,0.00288773194967726
0.181013453,0.00343552697449923,0.00198338599875569,0.00441817101091147,0.00593775215837023
0.191013453,-0.00293196202255785,-0.00320982770062983,-0.00317788915708661,0.00538501389637769
0.201013453,0.00457466999068856,-0.00105610257014632,0.0023315167054534,0.00524203474904396
0.211013453,-0.00357499229721725,0.00299051613546908,0.00215691910125315,0.00513576252284062
0.221013453,-0.00286169722676277,-0.00026828411500901,0.00454911915585399,0.00538105681796667
0.231013453,-0.00138294068165123,0.000841049419250339,-0.00499732373282313,0.00525291667031038
0.241013453,0.00464067654684186,0.00472158752381802,0.00159160618204623,0.00680899976473857
0.251013453,-0.00257424986921251,-0.000942188256885856,0.00154263363219798,0.00314550466916559
0.261013453,0.00235600280575454,0.00440220162272453,-0.000817627762444317,0.00505951020413651
0.271013453,0.000962416001129895,0.00420311791822314,0.0040381015278399,0.00590751290670297
0.281013453,-0.00383582408539951,-0.00168422807473689,-0.00142020243220031,0.00442347663837966
0.291013453,-0.00195996440015733,-0.000254444050369784,0.00175449287053198,0.00264281052241741
0.301013453,-0.00371978036127985,-0.000502500392030925,0.000501435773912817,0.00378691304567639
0.311013453,-0.000909185037016869,-0.000987966894172132,0.00118279224261642,0.00178932766834615
0.321013453,-0.00291918660514057,0.0024454309605062,-0.00476843072101474,0.00610243513356361
0.331013453,-0.00452676182612777,-0.00122111849486828,0.00176088057924062,0.00500833339778252
0.341013453,0.00459489785134792,-0.0048184678889811,-0.000677097996231169,0.00669247194674464
0.351013453,0.000347065943060443,-0.00211539887823164,0.00438197376206517,0.00487822316364101
0.361013453,0.000877246435265988,-0.00122005387675017,0.000843178655486554,0.00172309112220687
0.371013453,-7.66526063671336E-05,-0.00177472073119134,0.0017576867248863,0.00249899418139073
0.381013453,-0.00331735424697399,0.00284146936610341,0.000481208000564948,0.00439435416167475
0.391013453,-0.186231762170792,-0.060748253017664,-0.155063956975937,0.249834845926207
0.401013453,-0.191893398761749,-0.0556370131671429,-0.100933380424976,0.223843921084557
0.411013453,-0.179195687174797,-0.0415861643850803,-0.030188350006938,0.186418453610291
0.421013453,-0.144095182418823,-0.0203853342682123,0.0404310524463654,0.151041893034553
0.431013453,-0.0986039936542511,0.000935800548177213,0.095059871673584,0.136967158435268
0.441013453,-0.0581154488027096,0.0152293816208839,0.124286875128746,0.138045524314856
0.451013453,-0.0251771863549948,0.0207749847322702,0.125486701726913,0.129662650804615
0.461013453,-0.00747682247310877,0.0162908080965281,0.0899773836135864,0.0917454242165721
0.471013453,-0.00381027301773429,0.00830190256237984,0.0458520948886871,0.0467531215247291
0.481013453,-0.00194186589214951,0.00423079775646329,0.0233662687242031,0.0238254697097636
0.491013453,0.00500264717265964,0.00707865506410599,0.0371147654950619,0.0381135101244185
0.501013453,0.0111859571188688,0.013713363558054,0.0759212076663971,0.0779564734339922
0.511013453,0.00663045002147555,0.0160172004252672,0.101661577820778,0.103128996804781
0.521013453,-0.00627486733719707,0.0130053916946054,0.104832015931606,0.105821858505292
0.531013453,-0.0111359199509025,0.00762693397700787,0.0752760469913483,0.0764765459842834
0.541013453,-0.0393813401460648,-0.00549982441589236,0.0260384641587734,0.0475304074888216
0.551013453,-0.0978193655610085,-0.0251857023686171,-0.0206397771835327,0.103096790855703
0.561013453,-0.141894608736038,-0.0386616550385952,-0.0480313710868359,0.154712042734747
0.571013453,-0.166934460401535,-0.0421269945800304,-0.0370338521897793,0.176105945242947
0.581013453,-0.178266271948814,-0.0379260033369064,0.00961032044142485,0.182509187995089
0.591013453,-0.184366539120674,-0.0319375209510326,0.0672168806195259,0.19881935276037
0.601013453,-0.188147008419037,-0.0278578978031874,0.109027683734894,0.219231373365315
0.611013453,-0.191019356250763,-0.0262567102909088,0.127199664711952,0.230992562652112
0.621013453,-0.197371929883957,-0.0271233096718788,0.131671071052551,0.238806665706383
0.631013453,-0.214242964982986,-0.0313562378287315,0.133139178156853,0.254183599895342
0.641013453,-0.241875156760216,-0.038468960672617,0.134411409497261,0.279374085047362
0.651013453,-0.268272399902344,-0.0449695251882076,0.13892325758934,0.305437408063011
0.661013453,-0.274172514677048,-0.0457477644085884,0.155224710702896,0.318367926408295
0.671013453,-0.250519871711731,-0.038562647998333,0.187206953763962,0.315109072355411
0.681013453,-0.210795715451241,-0.0267762448638678,0.227103561162949,0.311010977996764
0.691013453,-0.178994476795197,-0.0160981118679047,0.262793868780136,0.318368951685508
0.701013453,-0.169643923640251,-0.0087309442460537,0.296643435955048,0.341837122487748
0.711013453,-0.176038026809692,-0.000157563685206696,0.351090222597122,0.392751519554873
0.721013453,-0.181097090244293,0.0174874402582645,0.456342756748199,0.491274544728589
0.731013453,-0.171898782253265,0.0492876246571541,0.629960894584656,0.654850509651172
0.741013453,-0.14260470867157,0.0925612151622772,0.85391640663147,0.870676122907952
0.751013453,-0.0937567800283432,0.13641183078289,1.07376885414124,1.0864520576181
0.761013453,-0.0316149406135082,0.167237877845764,1.2233818769455,1.23516445427119
0.771013453,0.0299019683152437,0.174049317836761,1.2511727809906,1.26357454099088
0.781013453,0.0739931836724281,0.151908427476883,1.12983703613281,1.14240224517718
0.791013453,0.0881100371479988,0.103999480605125,0.864448666572571,0.875129000634451
0.801013453,0.0580270849168301,0.0414286032319069,0.516683280467987,0.521579412999451
0.811013453,-0.0256062280386686,-0.0200744643807411,0.193594664335251,0.196309849711166
0.821013453,-0.143957853317261,-0.0646287873387337,-9.36865108087659E-05,0.15779972262888
0.831013453,-0.246618032455444,-0.0802456960082054,-0.00263812718912959,0.259358411035968
0.841013453,-0.284185260534287,-0.0645191371440888,0.179488450288773,0.342257337612831
0.851013453,-0.25351357460022,-0.0294835716485977,0.467084765434265,0.532265527349388
0.861013453,-0.182468324899673,0.00522515224292874,0.736928522586823,0.759200658067188
0.871013453,-0.0880174189805985,0.0255455449223518,0.884997963905335,0.889730878988683
0.881013453,0.0308122169226408,0.0266974624246359,0.866945207118988,0.867903300695526
0.891013453,0.179229751229286,0.00943891610950232,0.689197361469269,0.712183543701507
0.901013453,0.346411198377609,-0.0240007825195789,0.381056070327759,0.515539023408119
0.911013453,0.504574298858643,-0.0694036111235619,-0.0159032866358757,0.509573349805015
0.921013453,0.62274706363678,-0.120289228856564,-0.453073292970657,0.779460590825741
0.931013453,0.686880767345429,-0.170523300766945,-0.884155809879303,1.13252588526569
0.941013453,0.715547800064087,-0.215150013566017,-1.27492547035217,1.47774596513295
0.951013453,0.736092805862427,-0.252287149429321,-1.62214577198029,1.79912154402172
0.961013453,0.759204626083374,-0.284448236227036,-1.95628082752228,2.11762535390241
0.971013453,0.789807140827179,-0.31738755106926,-2.32287311553955,2.4739178822612
0.981013453,0.832068264484406,-0.355881005525589,-2.7449414730072,2.89027551923531
0.991013453,0.864205956459045,-0.400351226329803,-3.17656683921814,3.3162795303809
1.001013453,0.829744219779968,-0.445352673530579,-3.47386622428894,3.59924450660616
1.011013453,0.697174608707428,-0.468796670436859,-3.42714643478394,3.5286194805747
1.021013453,0.515762388706207,-0.429967880249023,-2.89497494697571,2.97182825265303
1.031013453,0.391740590333939,-0.297280073165894,-1.9503573179245,2.01139996012686
1.041013453,0.404023081064224,-0.0885837897658348,-0.87993460893631,0.9722996728611
1.051013453,0.538024604320526,0.123578898608685,-0.0369572006165981,0.553270326073078
1.061013453,0.701433062553406,0.256605237722397,0.318642735481262,0.812026959001116
1.071013453,0.789653837680817,0.265248864889145,0.115695394575596,0.841008661082051
1.081013453,0.749410152435303,0.157290071249008,-0.520868301391602,0.926099093229874
1.091013453,0.588213980197907,-0.0218938998878002,-1.32491147518158,1.4497811719085
1.101013453,0.352670103311539,-0.214633673429489,-2.00742530822754,2.04943899242013
1.111013453,0.114705294370651,-0.364395827054977,-2.37229800224304,2.40286067735482
1.121013453,-0.056145902723074,-0.425088733434677,-2.35244822502136,2.39120585585847
1.131013453,-0.125164121389389,-0.378013372421265,-1.99762856960297,2.03692907807475
1.141013453,-0.10017004609108,-0.239872604608536,-1.43083047866821,1.45425196003357
1.151013453,-0.0172063801437616,-0.0551419667899609,-0.803508758544922,0.805582411102377
1.161013453,0.076374739408493,0.124507248401642,-0.234258875250816,0.276065891334009
1.171013453,0.136482089757919,0.25988957285881,0.222850412130356,0.368554279709371
1.181013453,0.13796404004097,0.333205670118332,0.549100935459137,0.656941346137943
1.191013453,0.0852057561278343,0.347818642854691,0.729792416095734,0.81291746185295
1.201013453,-0.000837855506688356,0.315881103277206,0.754076361656189,0.817565124389556
1.211013453,-0.102794334292412,0.249771445989609,0.636594533920288,0.691523716882906
1.221013453,-0.208754852414131,0.16516400873661,0.425698757171631,0.502072873242385
1.231013453,-0.29805725812912,0.0858349427580833,0.191289767622948,0.364413970257691
1.241013453,-0.336682707071304,0.0378738380968571,-0.00648992042988539,0.338868399117172
1.251013453,-0.301370352506638,0.0345373190939426,-0.140016630291939,0.334098148062035
1.261013453,-0.212764203548431,0.0671955868601799,-0.199967473745346,0.299617829511493
1.271013453,-0.123685359954834,0.118483632802963,-0.164655119180679,0.237587347688693
1.281013453,-0.050616268068552,0.194871142506599,0.0111337909474969,0.201645059636673
1.291013453,0.0325486101210117,0.319544464349747,0.368915140628815,0.48914870714595
1.301013453,0.125910416245461,0.483059376478195,0.882092595100403,1.01355174532609
1.311013453,0.182373568415642,0.631793081760407,1.4282466173172,1.57235842494483
1.321013453,0.158851876854897,0.707015931606293,1.82797193527222,1.96636386319223
1.331013453,0.0569965317845345,0.683500587940216,1.9393630027771,2.05707328865325
1.341013453,-0.105945609509945,0.574882805347443,1.76580560207367,1.86004949836646
1.351013453,-0.3058140873909,0.427570343017578,1.46095597743988,1.55265289820108
1.361013453,-0.48789381980896,0.307405680418015,1.22867095470428,1.35726598229491
1.371013453,-0.590610444545746,0.261566370725632,1.19099617004395,1.35488358930221
1.381013453,-0.596228420734406,0.29164719581604,1.3423638343811,1.49749359944313
1.391013453,-0.516896188259125,0.372860610485077,1.61029982566834,1.73184070654191
1.401013453,-0.371543675661087,0.47812807559967,1.92552506923676,2.01848902693565
1.411013453,-0.203825652599335,0.577610373497009,2.2301607131958,2.31274629972916
1.421013453,-0.0760415121912956,0.6332186460495,2.41580247879028,2.49856954712299
1.431013453,-0.0345245450735092,0.608333170413971,2.31687068939209,2.3956525169153
1.441013453,-0.0954772010445595,0.489219278097153,1.83098793029785,1.89762172175532
1.451013453,-0.384593784809113,0.277328044176102,1.04796028137207,1.15023648643823
1.461013453,-1.06098484992981,-0.00411475449800491,0.225696131587029,1.08473246784565
1.471013453,-2.01549291610718,-0.270181268453598,-0.301656723022461,2.05577391540171
1.481013453,-2.78630614280701,-0.348647981882095,-0.115801855921745,2.8104212151472
1.491013453,-2.88326740264893,-0.0773850604891777,1.18350660800934,3.11767657943645
1.501013453,-2.30875086784363,0.458243101835251,3.47696089744568,4.19875867281207
1.511013453,-1.47752261161804,0.902684450149536,5.63756561279297,5.89746202386502
1.521013453,-0.764782190322876,0.97148871421814,5.9922833442688,6.11850813503501
1.531013453,-0.292452037334442,0.674059569835663,3.92756652832031,3.99570561130449
1.541013453,-0.0245267041027546,0.17505644261837,0.457996100187302,0.490924378191916
1.551013453,0.0698220059275627,-0.357253283262253,-3.00202679634094,3.02401552688846
1.561013453,0.0951929539442062,-0.754177510738373,-5.26233768463135,5.31695808929085
1.571013453,0.202426746487618,-0.863793909549713,-5.62897872924805,5.69846628841443
1.581013453,0.391539365053177,-0.669940531253815,-4.43907976150513,4.50639018714617
1.591013453,0.547154784202576,-0.320336550474167,-2.64555501937866,2.72046966974548
1.601013453,0.604367434978485,0.0160278454422951,-0.983628571033478,1.15457440385856
1.611013453,0.595729112625122,0.264450401067734,0.288435220718384,0.712756667317019
1.621013453,0.545088350772858,0.421763926744461,1.19800889492035,1.38211122286141
1.631013453,0.43050017952919,0.495221585035324,1.78973925113678,1.90623750092144
1.641013453,0.278911143541336,0.490072041749954,2.02215528488159,2.09930322447022
1.651013453,0.164052546024323,0.414964199066162,1.83806872367859,1.89145583012904
1.661013453,0.133043363690376,0.289689362049103,1.29448676109314,1.33316031959846
1.671013453,0.18902425467968,0.14803746342659,0.584739029407501,0.63211153442048
1.681013453,0.309790432453156,0.028430663049221,-0.0626517906785011,0.317338402208359
1.691013453,0.476963371038437,-0.0397422462701798,-0.484963983297348,0.681368893145688
1.701013453,0.669357120990753,-0.0470508597791195,-0.624474942684174,0.916636074386878
1.711013453,0.843887686729431,-0.00970294233411551,-0.536907851696014,1.00025527547538
1.721013453,0.941362082958221,0.0394718311727047,-0.350886881351471,1.00540648505574
1.731013453,0.89840579032898,0.069126807153225,-0.188675060868263,0.920602931864482
1.741013453,0.715261399745941,0.0696782767772675,-0.0972338244318962,0.725195386661295
1.751013453,0.449567526578903,0.0479217171669006,-0.0517266653478146,0.455063841497544
1.761013453,0.216044291853905,0.0312135778367519,0.00323431403376162,0.218311438709233
1.771013453,0.0870901346206665,0.0416244938969612,0.127575486898422,0.159977482471107
1.781013453,0.0508611313998699,0.0799752771854401,0.359169602394104,0.371464268715177
1.791013453,0.0920949056744576,0.140364751219749,0.675595819950104,0.696141829636908
1.801013453,0.167840451002121,0.199850365519524,0.983309149742127,1.01735316854938
1.811013453,0.229564964771271,0.233982071280479,1.17647802829742,1.22128957819091
1.821013453,0.248416185379028,0.232784375548363,1.20599985122681,1.25313000435581
1.831013453,0.224845498800278,0.203714936971664,1.09974551200867,1.14083104141644
1.841013453,0.185649409890175,0.160568043589592,0.912497043609619,0.944933148223225
1.851013453,0.169257462024689,0.113322354853153,0.681361794471741,0.711156761569665
1.861013453,0.193766072392464,0.0650642216205597,0.41819104552269,0.465470078845946
1.871013453,0.227335646748543,0.0126551315188408,0.119238443672657,0.257020339829
1.881013453,0.216688394546509,-0.0480515994131565,-0.216145440936089,0.309809083428427
1.891013453,0.146643877029419,-0.116985708475113,-0.575827121734619,0.605612876995544
1.901013453,0.0491066388785839,-0.186968475580215,-0.92012083530426,0.940207968698283
1.911013453,-0.0287053342908621,-0.244536712765694,-1.18317341804504,1.20852039174993
1.921013453,-0.0605587512254715,-0.275248855352402,-1.3024959564209,1.33263836475451
1.931013453,-0.0468240939080715,-0.27123948931694,-1.25830256938934,1.28805617597489
1.941013453,0.00335355126298964,-0.235597103834152,-1.08552646636963,1.11080374091468
1.951013453,0.0765610486268997,-0.17983977496624,-0.840319037437439,0.862751426255873
1.961013453,0.154977723956108,-0.119178831577301,-0.57660323381424,0.60884561102449
1.971013453,0.218722879886627,-0.0686179175972939,-0.343204587697983,0.412719645544323
1.981013453,0.252158313989639,-0.0369263254106045,-0.172856941819191,0.307939752480109
1.991013453,0.251174598932266,-0.0224581472575665,-0.0683677345514298,0.26127991628658
2.001013453,0.215493887662888,-0.016651714220643,-0.000678162614349276,0.216137352419897
2.011013453,0.146254226565361,-0.0120376525446773,0.0685231685638428,0.16195872467097
2.021013453,0.0551419667899609,-0.00622270070016384,0.160347670316696,0.169678324724936
2.031013453,-0.0383326895534992,0.000220376226934604,0.27414482831955,0.276811904636418
2.041013453,-0.123394720256329,0.00547214411199093,0.394228607416153,0.413125158098123
2.051013453,-0.205279931426048,0.00712549826130271,0.49807795882225,0.538769223356619
2.061013453,-0.285841822624207,0.0021931161172688,0.557299554347992,0.62633309875489
2.071013453,-0.342060118913651,-0.013264094479382,0.537003636360169,0.636831191618017
2.081013453,-0.34236353635788,-0.0409463308751583,0.421436011791229,0.544516028298624
2.091013453,-0.28128844499588,-0.0758637189865112,0.241467416286469,0.378397946974779
2.101013453,-0.17943948507309,-0.107078365981579,0.0633693486452103,0.21835745833907
2.111013453,-0.0665600076317787,-0.12578159570694,-0.0544872246682644,0.152381436161287
2.121013453,0.0168476030230522,-0.133288234472275,-0.0957870110869408,0.164999232329512
2.131013453,0.0280016213655472,-0.138792306184769,-0.0804628729820252,0.16285474811533
2.141013453,-0.0375778749585152,-0.148348331451416,-0.0372797809541225,0.157509067036804
2.151013453,-0.103208474814892,-0.157265588641167,0.0122250253334641,0.188504392226475
2.161013453,-0.0846340581774712,-0.155678242444992,0.0793929323554039,0.194169711032228
2.171013453,-0.0371094420552254,-0.139294818043709,0.237544283270836,0.277862274406108
2.181013453,-0.106054201722145,-0.115136466920376,0.535886883735657,0.558281874932136
2.191013453,-0.323182284832001,-0.0988744050264359,0.870778918266296,0.934065769470001
2.201013453,-0.556807696819305,-0.107450976967812,1.02134478092194,1.16821474276138
2.211013453,-0.698632061481476,-0.150717109441757,0.84956419467926,1.11020796488287
2.221013453,-0.778050541877747,-0.221207693219185,0.431667000055313,0.916859797456711
2.231013453,-0.847389221191406,-0.299534946680069,-0.0511986166238785,0.900228290389837
2.241013453,-0.883839666843414,-0.367944210767746,-0.461169749498367,1.06265377088484
2.251013453,-0.844246447086334,-0.414365857839584,-0.72562974691391,1.18785085644932
2.261013453,-0.719804108142853,-0.430042386054993,-0.795078039169312,1.15551005892312
2.271013453,-0.502731442451477,-0.412086516618729,-0.663260042667389,0.928691598221631
2.281013453,-0.180922493338585,-0.370211839675903,-0.418017506599426,0.586965408397862
2.291013453,0.21753902733326,-0.32519868016243,-0.221176832914352,0.449440320187798
2.301013453,0.613377332687378,-0.299096316099167,-0.23593245446682,0.722048808342977
2.311013453,0.948014914989471,-0.301400154829025,-0.539296865463257,1.1315544359296
2.321013453,1.24615204334259,-0.321181863546371,-1.08462369441986,1.68299175966343
2.331013453,1.56699430942535,-0.329880863428116,-1.7181841135025,2.3487122424256
2.341013453,1.93041276931763,-0.298190325498581,-2.27202582359314,2.99624970141669
2.351013453,2.28687930107117,-0.221466407179832,-2.67386198043823,3.52539390673013
2.361013453,2.53837966918945,-0.129194766283035,-2.9614679813385,3.90260877325443
2.371013453,2.59447026252747,-0.0677193775773048,-3.21363258361816,4.13077429058175
2.381013453,2.42755270004272,-0.0686381459236145,-3.46233749389648,4.22912570494209
2.391013453,2.11452484130859,-0.11881472915411,-3.65611410140991,4.2252221914242
2.401013453,1.78050792217255,-0.170536071062088,-3.69855737686157,4.10835948796958
2.411013453,1.50258898735046,-0.184698700904846,-3.52896237373352,3.83998212368883
2.421013453,1.28384375572205,-0.160976856946945,-3.1826000213623,3.43556563516903
2.431013453,1.09273505210876,-0.128342002630234,-2.77198600769043,2.9823561139773
2.441013453,0.922988891601563,-0.104695744812489,-2.40582180023193,2.57892385065417
2.451013453,0.79653126001358,-0.0803659930825234,-2.12412357330322,2.26998275228809
2.461013453,0.735858619213104,-0.0306652989238501,-1.89738082885742,2.0353088900076
2.471013453,0.745139956474304,0.0622333958745003,-1.67862701416016,1.83763304360932
2.481013453,0.802509129047394,0.192860081791878,-1.44765257835388,1.6664074834709
2.491013453,0.858142912387848,0.324894189834595,-1.21962702274323,1.52625540696021
2.501013453,0.85398131608963,0.408900111913681,-1.01998960971832,1.39171196505834
2.511013453,0.752518832683563,0.412770003080368,-0.849810123443604,1.20782486929755
2.521013453,0.553086876869202,0.337037235498428,-0.688713014125824,0.945423083758604
2.531013453,0.289899080991745,0.206321120262146,-0.536744952201843,0.64397595105737
2.541013453,0.00785902142524719,0.0418193191289902,-0.447764039039612,0.449781340572552
2.551013453,-0.240318685770035,-0.133733242750168,-0.49264520406723,0.564213565981141
2.561013453,-0.415644466876984,-0.294009566307068,-0.681013643741608,0.850283206283497
2.571013453,-0.517382740974426,-0.419097036123276,-0.924825370311737,1.13957412743435
2.581013453,-0.571314215660095,-0.494998008012772,-1.08278822898865,1.32055038138963
2.591013453,-0.600943624973297,-0.510384976863861,-1.04996180534363,1.31302926764213
2.601013453,-0.601816594600678,-0.451586037874222,-0.816983640193939,1.11066440992959
2.611013453,-0.566674590110779,-0.324851602315903,-0.455239802598953,0.796173305552731
2.621013453,-0.516007244586945,-0.166342541575432,-0.0409878492355347,0.543703339505047
2.631013453,-0.481090903282166,-0.0153667172417045,0.383419513702393,0.615382090011901
2.641013453,-0.478468745946884,0.104470044374466,0.784933269023895,0.925184612842283
2.651013453,-0.508118391036987,0.173403099179268,1.08955180644989,1.21465059710734
2.661013453,-0.562796175479889,0.166991949081421,1.18631505966187,1.32361975921083
2.671013453,-0.629094302654266,0.0815360099077225,1.03432357311249,1.21335609630476
2.681013453,-0.686712563037872,-0.0464482828974724,0.730179905891419,1.00344122009501
2.691013453,-0.718013465404511,-0.157641395926476,0.447496831417084,0.860608831200431
2.701013453,-0.708674609661102,-0.205154299736023,0.303272843360901,0.797673120143019
2.711013453,-0.642614960670471,-0.17037957906723,0.306621044874191,0.732119972272563
2.721013453,-0.516895115375519,-0.0537909641861916,0.43764591217041,0.679417377292207
2.731013453,-0.356761455535889,0.129506707191467,0.695788443088532,0.792573202233854
2.741013453,-0.210782945156097,0.338442534208298,1.05229866504669,1.1253023057779
2.751013453,-0.135981723666191,0.495560139417648,1.38296949863434,1.47535606383808
2.761013453,-0.16563031077385,0.519432127475739,1.49626302719116,1.59249683875362
2.771013453,-0.281535416841507,0.384680032730103,1.27154207229614,1.35796176681692
2.781013453,-0.439123600721359,0.140838518738747,0.787171125411987,0.912306640200207
2.791013453,-0.76043426990509,-0.173525527119637,0.379073739051819,0.867218707735806
2.801013453,-1.51457345485687,-0.509796261787415,0.602156221866608,1.70775205876678
2.811013453,-2.674560546875,-0.700154483318329,1.76757383346558,3.2814337836018
2.821013453,-3.72240161895752,-0.590069591999054,3.4277606010437,5.09450671550121
2.831013453,-4.07887983322144,-0.259620249271393,4.63388824462891,6.17880114839458
2.841013453,-3.73540163040161,0.0168593134731054,4.68592596054077,5.99261309317795
2.851013453,-3.00403046607971,0.0686796680092812,3.54688096046448,4.64857832951521
2.861013453,-2.03516173362732,-0.0814774557948113,1.59137403964996,2.58476172826348
2.871013453,-1.03045582771301,-0.345095336437225,-0.623715817928314,1.2529770251814
2.881013453,-0.311942011117935,-0.619661748409271,-2.43390846252441,2.5308494433075
2.891013453,-0.00515914615243673,-0.788873434066773,-3.29734587669373,3.39040377275546
2.901013453,0.178250297904015,-0.698792815208435,-3.07639908790588,3.15979681551804
2.911013453,0.551621913909912,-0.272918403148651,-2.02578997612,2.11721425888621
2.921013453,1.02653062343597,0.348647981882095,-0.527862846851349,1.20580252164619
2.931013453,1.28648293018341,0.895122468471527,1.02949666976929,1.87513891652909
2.941013453,1.13586270809174,1.17073011398315,2.29760956764221,2.81776557164388
2.951013453,0.64102441072464,1.15542089939117,3.02688241004944,3.30271507613985
2.961013453,0.00912911165505648,0.9427929520607,3.13478899002075,3.27350636215821
2.971013453,-0.565783500671387,0.650286614894867,2.74341058731079,2.87563650375223
2.981013453,-0.966031432151794,0.37173318862915,2.10325264930725,2.34415741754934
2.991013453,-1.15020632743835,0.167135670781136,1.47884690761566,1.8809298509756
3.001013453,-1.11855411529541,0.0621301271021366,1.0415598154068,1.52966346318668
3.011013453,-0.895312011241913,0.0494909659028053,0.827273190021515,1.22000569019509
3.021013453,-0.546082735061646,0.0987913683056831,0.783757984638214,0.960334663785637
3.031013453,-0.174508169293404,0.170375317335129,0.830972790718079,0.866023457431133
3.041013453,0.131351694464684,0.22992268204689,0.888568699359894,0.927185008960193
3.051013453,0.338963121175766,0.258346945047379,0.892498195171356,0.989035980092058
3.061013453,0.463487416505814,0.254698514938355,0.816458821296692,0.972777942618057
3.071013453,0.550555169582367,0.23098623752594,0.673203587532044,0.899815929480176
3.081013453,0.64599621295929,0.200708448886871,0.489868670701981,0.835204348137414
3.091013453,0.74988603591919,0.16673432290554,0.278577923774719,0.817150574200372
3.101013453,0.806457757949829,0.121800988912582,0.0414062440395355,0.816654194444019
3.111013453,0.752102553844452,0.0608664266765118,-0.198025614023209,0.780113528407874
3.121013453,0.578037261962891,-0.00696899928152561,-0.380029767751694,0.69180797013763
3.131013453,0.340068221092224,-0.0572914332151413,-0.428142040967941,0.549758411086969
3.141013453,0.12193938344717,-0.0626954436302185,-0.288276612758637,0.319223021336273
3.151013453,-0.021788502112031,-0.0146587453782558,0.0323048122227192,0.0416319412602351
3.161013453,-0.0918564349412918,0.0663236677646637,0.45519083738327,0.469079025307638
3.171013453,-0.124499797821045,0.146242514252663,0.868764638900757,0.889741013125046
3.181013453,-0.152314051985741,0.201958313584328,1.18532180786133,1.21201259030168
3.191013453,-0.185167133808136,0.226658552885056,1.36239039897919,1.39347356138153
3.201013453,-0.221041619777679,0.217498570680618,1.37325263023376,1.40783088912199
3.211013453,-0.253145217895508,0.172481134533882,1.19393563270569,1.23260477776041
3.221013453,-0.26934340596199,0.0975957959890366,0.834699988365173,0.882493558223945
3.231013453,-0.255818486213684,0.00742891477420926,0.356949865818024,0.439216909249733
3.241013453,-0.208307713270187,-0.0829945430159569,-0.155234292149544,0.272723088566869
3.251013453,-0.137564808130264,-0.164151549339294,-0.632529854774475,0.667805229664627
3.261013453,-0.0661799386143684,-0.229548990726471,-1.02069962024689,1.04828442618913
3.271013453,-0.00743210874497891,-0.271763294935226,-1.26934897899628,1.29813610811553
3.281013453,0.0534364469349384,-0.280214250087738,-1.33685863018036,1.36695518467175
3.291013453,0.141893550753593,-0.244674041867256,-1.20478618144989,1.23754147789952
3.301013453,0.261094748973846,-0.167704179883003,-0.900984287261963,0.952925939296908
3.311013453,0.38339501619339,-0.0722227245569229,-0.514035522937775,0.645321919065412
3.321013453,0.466328889131546,0.00780259631574154,-0.168204560875893,0.495798636189512
3.331013453,0.468202620744705,0.0456157512962818,0.0348087996244431,0.471705568516876
3.341013453,0.364719480276108,0.0322079323232174,0.0595590732991695,0.370951389550797
3.351013453,0.154693469405174,-0.0246651042252779,-0.0498412251472473,0.164385475536107
3.361013453,-0.134158030152321,-0.105361133813858,-0.200504049658775,0.263251247864965
3.371013453,-0.439995527267456,-0.180710643529892,-0.290516555309296,0.557361883886164
3.381013453,-0.688182830810547,-0.218745231628418,-0.236929997801781,0.759987439923148
3.391013453,-0.81923109292984,-0.199563980102539,-0.0123719433322549,0.843278382717833
3.401013453,-0.817185938358307,-0.130625620484352,0.329170763492584,0.890622985396043
3.411013453,-0.706536829471588,-0.0439655892550945,0.668188214302063,0.973448896537713
3.421013453,-0.519122302532196,0.0276875589042902,0.886139214038849,1.02737396918639
3.431013453,-0.286093056201935,0.0656242072582245,0.915341734886169,0.961252446035721
3.441013453,-0.0287234336137772,0.0655954629182816,0.740441799163818,0.743896402964137
3.451013453,0.246145352721214,0.035530611872673,0.395327270030975,0.467047759309946
3.461013453,0.509659945964813,-0.00794738437980413,-0.0226455219089985,0.510224696679676
3.471013453,0.668918490409851,-0.0524953231215477,-0.384285062551498,0.773228759851856
3.481013453,0.640612423419952,-0.0968910157680512,-0.607254683971405,0.887992340722464
3.491013453,0.470757693052292,-0.135916769504547,-0.677634537220001,0.836226488359364
3.501013453,0.279066562652588,-0.154410287737846,-0.59720253944397,0.677031429453863
3.511013453,0.115096010267735,-0.141737043857574,-0.348072022199631,0.393052940224564
3.521013453,-0.0736546367406845,-0.106558829545975,0.0602787546813488,0.142875183056906
3.531013453,-0.315537244081497,-0.0673850923776627,0.531651794910431,0.62189881340036
3.541013453,-0.546552240848541,-0.0365718081593514,0.923180520534515,1.07346128138046
3.551013453,-0.69391256570816,-0.0192419327795506,1.14830923080444,1.34182673634694
3.561013453,-0.740428984165192,-0.0140082631260157,1.22367680072784,1.43032032239888
3.571013453,-0.711820542812347,-0.0135217318311334,1.23404407501221,1.42468807164028
3.581013453,-0.635739624500275,-0.00830935500562191,1.26533854007721,1.41609164129483
3.591013453,-0.53162944316864,0.00490683130919933,1.3506475687027,1.45151741177287
3.601013453,-0.400162786245346,0.020344877615571,1.45852971076965,1.5125650685966
3.611013453,-0.217325031757355,0.0259043220430613,1.50662815570831,1.52244198671144
3.621013453,0.0360884703695774,0.0090907858684659,1.39596951007843,1.39646550016459
3.631013453,0.325822532176971,-0.0334482155740261,1.07683920860291,1.12554954879109
3.641013453,0.569255232810974,-0.0944668799638748,0.58248633146286,0.819918189720076
3.651013453,0.712007939815521,-0.164740279316902,-0.0070424578152597,0.730851737496624
3.661013453,0.781204998493195,-0.2402633279562,-0.638102054595947,1.03690980731735
3.671013453,0.851268649101257,-0.31819561123848,-1.29109060764313,1.57886722592446
3.681013453,0.988359749317169,-0.389315366744995,-1.93817698955536,2.2101926367844
3.691013453,1.21977710723877,-0.440208435058594,-2.54359531402588,2.85508612465105
3.701013453,1.50297021865845,-0.462779432535172,-3.0676372051239,3.44724271028487
3.711013453,1.72300779819489,-0.46320104598999,-3.45253872871399,3.88630090895142
3.721013453,1.75231146812439,-0.456568449735642,-3.59552121162415,4.02576986598258
3.731013453,1.58584010601044,-0.43563911318779,-3.37627458572388,3.75551599077612
3.741013453,1.37211990356445,-0.361238151788712,-2.76819062232971,3.11064066610395
3.751013453,1.30011439323425,-0.198095872998238,-1.90644502639771,2.31604664224846
3.761013453,1.45964014530182,0.0378365777432919,-1.04359328746796,1.79473338132443
3.771013453,1.78118395805359,0.277417480945587,-0.421097457408905,1.85118875855432
3.781013453,2.12171530723572,0.447476595640183,-0.184363350272179,2.17621253408937
3.791013453,2.35973644256592,0.504663705825806,-0.378620207309723,2.44262047722006
3.801013453,2.42912411689758,0.440400063991547,-0.944133281707764,2.64310117953995
3.811013453,2.29182124137878,0.262585192918777,-1.72799670696259,2.88225054519012
3.821013453,1.93859755992889,-0.0136260651051998,-2.53725433349609,3.19311849480366
3.831013453,1.43670606613159,-0.349799901247025,-3.19765067100525,3.52298937057041
3.841013453,0.918468534946442,-0.675428688526154,-3.58622717857361,3.76308566728301
3.851013453,0.524152636528015,-0.901672005653381,-3.6531023979187,3.79906640134621
3.861013453,0.329947948455811,-0.962276518344879,-3.41966962814331,3.56776990739228
3.871013453,0.315593659877777,-0.849665343761444,-2.94662070274353,3.08287270583478
3.881013453,0.39321294426918,-0.616348683834076,-2.29889559745789,2.41234804446126
3.891013453,0.467040061950684,-0.343010812997818,-1.54339063167572,1.64858650948159
3.901013453,0.473451197147369,-0.107099652290344,-0.765258073806763,0.906226401694095
3.911013453,0.3863685131073,0.0375682935118675,-0.0594579316675663,0.39271777428113
3.921013453,0.219649091362953,0.0743338614702225,0.480521321296692,0.533546611383077
3.931013453,0.00604597385972738,0.0140306204557419,0.792216360569,0.792363662760653
3.941013453,-0.226559549570084,-0.118510246276855,0.880728840827942,0.917091706995615
3.951013453,-0.450774788856506,-0.286021739244461,0.815088629722595,0.974359184229364
3.961013453,-0.607658207416534,-0.425990462303162,0.690962553024292,1.01397515782971
3.971013453,-0.627118349075317,-0.472506880760193,0.594041705131531,0.984594192318975
3.981013453,-0.50458174943924,-0.413310825824738,0.566281735897064,0.863772878146612
3.991013453,-0.314061671495438,-0.304854840040207,0.575271368026733,0.72284739320952
4.001013453,-0.134678617119789,-0.222826987504959,0.525899648666382,0.586822491676365
4.011013453,0.0199030619114637,-0.200340092182159,0.322588205337524,0.380257063881649
4.021013453,0.171718865633011,-0.224285513162613,-0.0449940115213394,0.286034650526273
4.031013453,0.307277917861939,-0.276932001113892,-0.487198621034622,0.63911935378656
4.041013453,0.382083415985107,-0.352326244115829,-0.875424861907959,1.01808163126057
4.051013453,0.388813942670822,-0.42926949262619,-1.10786533355713,1.25012566432836
4.061013453,0.37907800078392,-0.460368067026138,-1.14777159690857,1.29345217402336
4.071013453,0.435333549976349,-0.389429301023483,-1.02738440036774,1.18181605436279
4.081013453,0.596345543861389,-0.206217855215073,-0.82591050863266,1.03936614326362
4.091013453,0.780423581600189,0.00486318161711097,-0.617067277431488,0.994915394458151
4.101013453,0.842783629894257,0.118891380727291,-0.438913881778717,0.957635005023857
4.111013453,0.726047039031982,0.0855325907468796,-0.306876569986343,0.79286402123792
4.121013453,0.530510544776917,-0.0199648085981607,-0.228749468922615,0.578071233702422
4.131013453,0.38533690571785,-0.0915924087166786,-0.184481516480446,0.436929204981374
4.141013453,0.265219062566757,-0.111702002584934,-0.0514871291816235,0.292351523002086
4.151013453,-0.22465281188488,-0.272673547267914,0.516906797885895,0.626108925801334
4.161013453,-1.51872551441193,-0.778588175773621,1.78567135334015,2.47009087236075
4.171013453,-3.37622570991516,-1.44282448291779,3.41366934776306,5.01336024525031
4.181013453,-4.80974769592285,-1.79611313343048,4.57777643203735,6.87864320547543
4.191013453,-4.9298152923584,-1.63144946098328,4.68967628479004,6.99698290812801
4.201013453,-3.98012256622314,-1.25040197372437,3.78303480148315,5.6317167051695
4.211013453,-2.82754945755005,-1.05874490737915,2.12390208244324,3.6914681049143
4.221013453,-1.9914345741272,-1.18957388401032,0.0690533518791199,2.32070378419011
4.231013453,-1.50048851966858,-1.49014365673065,-1.82857024669647,2.79565074042796
4.241013453,-1.09650373458862,-1.66619873046875,-3.02163076400757,3.62060645795417
4.251013453,-0.558818757534027,-1.49653875827789,-3.27225494384766,3.64136774802206
4.261013453,0.0812975391745567,-0.968922972679138,-2.62288808822632,2.79731352197438
4.271013453,0.60998547077179,-0.238559931516647,-1.18626081943512,1.35506746961352
4.281013453,0.856537461280823,0.470167905092239,0.74202698469162,1.22691414840924
4.291013453,0.806371569633484,0.967342019081116,2.65225887298584,2.93606246860063
4.301013453,0.534000337123871,1.15068328380585,3.97673797607422,4.17416737925415
4.311013453,0.124657362699509,1.02003109455109,4.33613443374634,4.45623885350044
4.321013453,-0.315823614597321,0.683412253856659,3.79063940048218,3.86467902014471
4.331013453,-0.682681918144226,0.287270545959473,2.74834704399109,2.84639955771348
4.341013453,-0.900958716869354,-0.0330649502575398,1.72511792182922,1.94649730147637
4.351013453,-0.933854401111603,-0.184947818517685,1.11169373989105,1.46360947980085
4.361013453,-0.779630422592163,-0.146108373999596,1.03522217273712,1.30416877731013
4.371013453,-0.475543171167374,0.0326433628797531,1.37082636356354,1.45133449480981
4.381013453,-0.0991969853639603,0.252599060535431,1.84283816814423,1.86271276402398
4.391013453,0.259981155395508,0.421160280704498,2.18069100379944,2.23615282063988
4.401013453,0.529945194721222,0.490041166543961,2.23020529747009,2.34409853103054
4.411013453,0.683747589588165,0.460263758897781,1.97917664051056,2.14394348534774
4.421013453,0.726304709911346,0.359767913818359,1.51069927215576,1.71439895425323
4.431013453,0.66548615694046,0.22290150821209,0.954479277133942,1.18473102344825
4.441013453,0.51517790555954,0.0804160311818123,0.438756316900253,0.681455881233425
4.451013453,0.307369470596314,-0.0443392731249332,0.0543051734566689,0.315263404885604
4.461013453,0.0947117432951927,-0.132795304059982,-0.149404436349869,0.221193563874313
4.471013453,-0.0723046958446503,-0.173134803771973,-0.166962146759033,0.251157296865394
4.481013453,-0.159577950835228,-0.164921268820763,-0.0412997826933861,0.233173367588886
4.491013453,-0.156555488705635,-0.121748819947243,0.149405509233475,0.248303045474115
4.501013453,-0.0888978540897369,-0.0709068477153778,0.312422156333923,0.332472876011007
4.511013453,-0.00361970625817776,-0.0417639575898647,0.365213453769684,0.367611475938041
4.521013453,0.0559138134121895,-0.0494451858103275,0.273779660463333,0.283771886228233
4.531013453,0.0723973214626312,-0.0863842889666557,0.0800199955701828,0.138227411269583
4.541013453,0.0589564964175224,-0.129620611667633,-0.123424530029297,0.188443588513575
4.551013453,0.0422643274068832,-0.158069372177124,-0.257911533117294,0.305435031891464
4.561013453,0.045858483761549,-0.163574531674385,-0.30329304933548,0.347629546673778
4.571013453,0.0700902864336968,-0.152886807918549,-0.28690642118454,0.33256926918283
4.581013453,0.0995951518416405,-0.137792631983757,-0.243650943040848,0.297105681103652
4.591013453,0.120373331010342,-0.12459135055542,-0.193746909499168,0.259904998782686
4.601013453,0.128342002630234,-0.110886506736279,-0.13565593957901,0.21718660400305
4.611013453,0.129434302449226,-0.0893056020140648,-0.0477268919348717,0.164336804810655
4.621013453,0.127255037426949,-0.0545106455683708,0.100468143820763,0.171052924422835
4.631013453,0.119143694639206,-0.00722344312816858,0.325414776802063,0.346615312795097
4.641013453,0.099011741578579,0.0429318435490131,0.596163511276245,0.60585262262217
4.651013453,0.0666962787508965,0.082565501332283,0.839267194271088,0.845952054781553
4.661013453,0.0206397771835327,0.0999858677387238,0.980433642864227,0.985734904631905
4.671013453,-0.0460416004061699,0.0873786434531212,0.976665914058685,0.981647168785076
4.681013453,-0.130138024687767,0.0444137938320637,0.829086244106293,0.840412095771158
4.691013453,-0.214415431022644,-0.0195048935711384,0.579444706439972,0.618150940915852
4.701013453,-0.279169857501984,-0.0864598751068115,0.304622769355774,0.422144703805631
4.711013453,-0.315951377153397,-0.138101369142532,0.08818668872118,0.355913125568271
4.721013453,-0.324195802211762,-0.162785649299622,-0.0167539175599813,0.363156687317243
4.731013453,-0.307861328125,-0.158838033676147,-0.00358883221633732,0.346440468210154
4.741013453,-0.268467217683792,-0.134050503373146,0.0877981036901474,0.312654268221396
4.751013453,-0.197952151298523,-0.101367741823196,0.194082260131836,0.295175197101534
4.761013453,-0.0923355147242546,-0.0719193071126938,0.265901505947113,0.29051995607859
4.771013453,0.0333119444549084,-0.0494856424629688,0.294212907552719,0.300199516028865
4.781013453,0.163331791758537,-0.0292983278632164,0.304691970348358,0.346947925500931
4.791013453,0.290031105279923,-0.00382837164215744,0.332879900932312,0.441522057097978
4.801013453,0.380703657865524,0.0288990959525108,0.4173244535923,0.565623666783114
4.811013453,0.39276260137558,0.0651579052209854,0.581288635730743,0.704559785739868
4.821013453,0.316416621208191,0.0975596010684967,0.798263370990753,0.864211642714314
4.831013453,0.180193230509758,0.117747977375984,0.999307215213776,1.02222751717804
4.841013453,-5.96186910115648E-05,0.119359813630581,1.12407422065735,1.13039356960783
4.851013453,-0.235761046409607,0.100569278001785,1.15061843395233,1.17882154342075
4.861013453,-0.506084978580475,0.0663619935512543,1.08226454257965,1.19658784042712
4.871013453,-0.751727819442749,0.0262641627341509,0.94501268863678,1.20782180078553
4.881013453,-0.89988774061203,-0.00514530576765537,0.805849850177765,1.2079811260557
4.891013453,-0.907610476016998,-0.0120419105514884,0.75183641910553,1.17862622780887
4.901013453,-0.791654229164124,0.00823802594095469,0.81362372636795,1.13523911654493
4.911013453,-0.607196152210236,0.0415350645780563,0.937662541866303,1.11786554257102
4.921013453,-0.403391778469086,0.0663949921727181,1.02897918224335,1.10721785544321
4.931013453,-0.177248492836952,0.0671125501394272,1.01504230499268,1.03258510715777
4.941013453,0.0934256836771965,0.0399604924023151,0.877869248390198,0.883730511294455
4.951013453,0.395342200994492,-0.0154966013506055,0.614875257015228,0.731168367908604
4.961013453,0.694799423217773,-0.105963706970215,0.188522815704346,0.727678086615033
4.971013453,0.977548539638519,-0.241738885641098,-0.466283112764359,1.10971112341439
4.981013453,1.2594405412674,-0.42045122385025,-1.36104786396027,1.90142604289935
4.991013453,1.53877866268158,-0.612387239933014,-2.3761157989502,2.89633979263097
5.001013453,1.75102007389069,-0.775403916835785,-3.29137325286865,3.80794700896843
5.011013453,1.82483661174774,-0.882872939109802,-3.90503168106079,4.39985973825028
5.021013453,1.77202820777893,-0.928586661815643,-4.14568662643433,4.60315921539355
5.031013453,1.71598029136658,-0.907637059688568,-4.09026050567627,4.52754065655668
5.041013453,1.78108179569244,-0.808922350406647,-3.85623383522034,4.32401978763194
5.051013453,1.95192229747772,-0.639671266078949,-3.49565243721008,4.05447480517644
5.061013453,2.1178240776062,-0.432843416929245,-3.00310850143433,3.70016120171198
5.071013453,2.20948028564453,-0.222040235996246,-2.39799785614014,3.26825621962321
5.081013453,2.25408482551575,-0.0254295002669096,-1.77495276927948,2.86914663153996
5.091013453,2.29447436332703,0.137257128953934,-1.26725280284882,2.62476318736411
5.101013453,2.31609773635864,0.232626810669899,-0.985057294368744,2.52760001396525
5.111013453,2.28130483627319,0.235688656568527,-0.978165984153748,2.49333302857721
5.121013453,2.17274045944214,0.1490807980299,-1.22049260139465,2.49652325815266
5.131013453,1.98551750183105,-0.00648140348494053,-1.62040936946869,2.56282037671985
5.141013453,1.71304512023926,-0.205768585205078,-2.04861330986023,2.6783727873411
5.151013453,1.36367535591125,-0.421527564525604,-2.37864303588867,2.77402931782565
5.161013453,0.986071884632111,-0.618424654006958,-2.5278058052063,2.78291016800403
5.171013453,0.662029385566711,-0.750411927700043,-2.47356986999512,2.66832323198221
5.181013453,0.455641180276871,-0.781965136528015,-2.24318623542786,2.41887636036288
5.191013453,0.372396439313889,-0.715461552143097,-1.89363968372345,2.05826033153751
5.201013453,0.358545750379562,-0.599159300327301,-1.50100696086884,1.65546634482874
5.211013453,0.346418648958206,-0.493659794330597,-1.14271354675293,1.292091375568
5.221013453,0.300827383995056,-0.432461202144623,-0.870725631713867,1.01768508490849
5.231013453,0.220105826854706,-0.419321686029434,-0.694810092449188,0.840855704600504
5.241013453,0.11056712269783,-0.444676667451859,-0.586040019989014,0.743912180453104
5.251013453,-0.0278578978031874,-0.497496694326401,-0.494695663452148,0.702141597381946
5.261013453,-0.188960373401642,-0.560589253902435,-0.364131808280945,0.694664169299762
5.271013453,-0.349102556705475,-0.607975423336029,-0.157550901174545,0.718560364158666
5.281013453,-0.480526655912399,-0.617442011833191,0.118692293763161,0.791345920326713
5.291013453,-0.570426285266876,-0.584496319293976,0.425173878669739,0.920757797303201
5.301013453,-0.62321549654007,-0.522550404071808,0.717469453811646,1.08453625899556
5.311013453,-0.647503674030304,-0.448452860116959,0.959031581878662,1.24101271172801
5.321013453,-0.652095377445221,-0.377292633056641,1.10769712924957,1.33961600557473
5.331013453,-0.655026316642761,-0.32829350233078,1.11837315559387,1.33700957899343
5.341013453,-0.684379994869232,-0.320073574781418,0.981355607509613,1.23849985831292
5.351013453,-0.751024127006531,-0.349282503128052,0.75047367811203,1.11769684972103
5.361013453,-0.826097846031189,-0.38425949215889,0.505246043205261,1.04180927846998
5.371013453,-0.868532538414002,-0.392100423574448,0.294678151607513,0.997460137291687
5.381013453,-0.867842674255371,-0.363425970077515,0.143122121691704,0.951689699798748
5.391013453,-0.848328173160553,-0.312529683113098,0.0658126473426819,0.906458381148824
5.401013453,-0.827637314796448,-0.252306312322617,0.0804703310132027,0.868974956057242
5.411013453,-0.793135106563568,-0.176782190799713,0.215179830789566,0.840605495952873
5.421013453,-0.717475831508637,-0.0700296014547348,0.496499121189117,0.87532113605264
5.431013453,-0.589644849300385,0.0705651119351387,0.927584826946259,1.1013964293159
5.441013453,-0.441861808300018,0.213764950633049,1.43391048908234,1.51559777066795
5.451013453,-0.34824874997139,0.30298325419426,1.87431371212006,1.93031809182322
5.461013453,-0.366529315710068,0.302433907985687,2.13504123687744,2.18728395302063
5.471013453,-0.510460555553436,0.214336648583412,2.21415400505066,2.28232077845858
5.481013453,-0.850233852863312,0.0252655502408743,2.23565411567688,2.39200444763941
5.491013453,-1.51793551445007,-0.29807323217392,2.33058190345764,2.79724648297065
5.501013453,-2.48523712158203,-0.715725600719452,2.49956893920898,3.59673623829617
5.511013453,-3.36690497398376,-1.05734705924988,2.64734983444214,4.4116315636578
5.521013453,-3.67111039161682,-1.14887881278992,2.75293040275574,4.73028538635159
5.531013453,-3.2637836933136,-0.973472058773041,2.89973378181458,4.47307364698461
5.541013453,-2.33087253570557,-0.633988380432129,3.07651925086975,3.91150594339337
5.551013453,-1.10109126567841,-0.25549590587616,3.00689744949341,3.21233752975037
5.561013453,0.182217076420784,0.0503703430294991,2.31184887886047,2.31956579408403
5.571013453,1.10817730426788,0.192920759320259,0.913021922111511,1.44875270054186
5.581013453,1.32269072532654,0.142540842294693,-0.826792001724243,1.56633765858518
5.591013453,0.964003384113312,-0.0271424744278193,-2.30439329147339,2.49805277772259
5.601013453,0.486953765153885,-0.186319053173065,-2.97725105285645,3.02255894743306
5.611013453,0.21324647963047,-0.237936064600945,-2.6333372592926,2.65265013770969
5.621013453,0.135964676737785,-0.190950155258179,-1.46888101100922,1.48746757262704
5.631013453,0.0872668623924255,-0.122035205364227,0.0532661080360413,0.159202308040477
5.641013453,-0.0299360360950232,-0.0832564383745194,1.44522631168365,1.44793193651174
5.651013453,-0.19516284763813,-0.0776139572262764,2.36868047714233,2.37797385735205
5.661013453,-0.309822380542755,-0.0796825066208839,2.71749663352966,2.73626153037162
5.671013453,-0.298902571201324,-0.07134760171175,2.59403157234192,2.61217017547622
5.681013453,-0.180031418800354,-0.0556827932596207,2.18250942230225,2.19062987829039
5.691013453,-0.0320322699844837,-0.0452867820858955,1.64754545688629,1.64847899333255
5.701013453,0.083078645169735,-0.0470274351537228,1.11009681224823,1.11419413636227
5.711013453,0.160027205944061,-0.0546075254678726,0.675535142421722,0.696375198529302
5.721013453,0.220597669482231,-0.0540486015379429,0.455443143844605,0.508933237649356
5.731013453,0.279908686876297,-0.0349471978843212,0.522988975048065,0.594211786866101
5.741013453,0.341628938913345,0.000742039759643376,0.825472950935364,0.893373648174156
5.751013453,0.3960842192173,0.0381602197885513,1.18113458156586,1.24636182983034
5.761013453,0.42777156829834,0.0587850958108902,1.37739086151123,1.44348529175346
5.771013453,0.424653291702271,0.051327433437109,1.29200947284698,1.36097516564527
5.781013453,0.389288753271103,0.0196677800267935,0.963957607746124,1.03978210434984
5.791013453,0.33918884396553,-0.0202660970389843,0.545822978019714,0.642948294883948
5.801013453,0.298868507146835,-0.0500009171664715,0.212888762354851,0.370329719869533
5.811013453,0.295076310634613,-0.0567090846598148,0.0877778753638268,0.313034989712135
5.821013453,0.350397139787674,-0.037531029433012,0.198729321360588,0.404573944922463
5.831013453,0.464947015047073,7.66526063671336E-05,0.483029574155808,0.670442616624232
5.841013453,0.593560516834259,0.0397805720567703,0.812635779380798,1.00711145906873
5.851013453,0.663449585437775,0.0641262903809547,1.04819989204407,1.24217573121389
5.861013453,0.627191841602325,0.0638250038027763,1.09617698192596,1.26453438584613
5.871013453,0.498569816350937,0.0400818586349487,0.939027369022369,1.06393177269076
5.881013453,0.332813888788223,0.00100925925653428,0.625864267349243,0.708852723997864
5.891013453,0.182019054889679,-0.0427306331694126,0.245056241750717,0.308235956654925
5.901013453,0.0755571126937866,-0.0814561694860458,-0.109925158321857,0.156293074888321
5.911013453,0.0154721150174737,-0.108579479157925,-0.361966371536255,0.378217587851811
5.921013453,-0.00858722068369389,-0.121245257556438,-0.473032802343369,0.488399616023414
5.931013453,-0.00779514387249947,-0.122193828225136,-0.471822321414948,0.487450919488
5.941013453,0.00557434745132923,-0.118816860020161,-0.435991495847702,0.451925993970335
5.951013453,0.0231629256159067,-0.118152536451817,-0.438947945833206,0.455161336389941
5.961013453,0.0432427152991295,-0.122374817728996,-0.501003563404083,0.517542364434291
5.971013453,0.0718362629413605,-0.128799796104431,-0.59516167640686,0.613161689290311
5.981013453,0.114254966378212,-0.133561834692955,-0.684092521667481,0.706311219810366
5.991013453,0.166177526116371,-0.134785085916519,-0.748479664325714,0.778462457335493
6.001013453,0.217720001935959,-0.132835760712624,-0.788187861442566,0.828424675810964
6.011013453,0.260891377925873,-0.128241926431656,-0.799682557582855,0.850883361967561
6.021013453,0.294349193572998,-0.119175635278225,-0.764291405677795,0.827638588149431
6.031013453,0.320277988910675,-0.102285444736481,-0.657075703144074,0.738098084300376
6.041013453,0.336439996957779,-0.0772615671157837,-0.470576703548431,0.583612590018966
6.051013453,0.332701027393341,-0.0485466495156288,-0.221142753958702,0.402431197145819
6.061013453,0.297222584486008,-0.0209133848547936,0.0699880868196487,0.30606693171805
6.071013453,0.227889254689217,0.00482166185975075,0.387889862060547,0.4499058856197
6.081013453,0.133701309561729,0.029058787971735,0.703872084617615,0.717046975337637
6.091013453,0.0275374483317137,0.0489245876669884,0.962246716022492,0.963883119903589
6.101013453,-0.0846223458647728,0.057435154914856,1.09919404983521,1.10394170934559
6.111013453,-0.201716646552086,0.0480377599596977,1.07726287841797,1.09703807641099
6.121013453,-0.310224801301956,0.0218523796647787,0.915352404117584,0.966740387882752
6.131013453,-0.381806612014771,-0.0109155438840389,0.684033989906311,0.78345257509541
6.141013453,-0.395477384328842,-0.0373713374137878,0.468232423067093,0.614036302173543
6.151013453,-0.362810611724854,-0.0519843064248562,0.316032290458679,0.48395280421462
6.161013453,-0.317146956920624,-0.0608685538172722,0.205871850252152,0.382975706610827
6.171013453,-0.270446360111237,-0.075154684484005,0.0681047737598419,0.288838571707773
6.181013453,-0.217550739645958,-0.0994088426232338,-0.133214771747589,0.273782062458366
6.191013453,-0.185479074716568,-0.125336587429047,-0.330253481864929,0.398972567465462
6.201013453,-0.215490698814392,-0.139816477894783,-0.411987513303757,0.485508599187111
6.211013453,-0.278389483690262,-0.136392652988434,-0.357329934835434,0.473062726018495
6.221013453,-0.285385102033615,-0.114950157701969,-0.231171473860741,0.384835608468592
6.231013453,-0.227081209421158,-0.0779056623578072,-0.0578290671110153,0.246940010736443
6.241013453,-0.237065210938454,-0.0338133797049522,0.199056163430214,0.311394629182844
6.251013453,-0.433812201023102,0.00352282589301467,0.521142959594727,0.678082163453612
6.261013453,-0.757393717765808,0.0233332645148039,0.784868359565735,1.09096655622042
6.271013453,-1.04907178878784,0.0239209346473217,0.880363643169403,1.36973135079819
6.281013453,-1.21724331378937,0.015289000235498,0.830182790756226,1.47347158254271
6.291013453,-1.27933084964752,0.0134812761098146,0.748620212078095,1.48232971689744
6.301013453,-1.27931702136993,0.0291077606379986,0.721871614456177,1.4692167745618
6.311013453,-1.22735190391541,0.0588393881917,0.741422295570374,1.43511734364002
6.321013453,-1.08542954921722,0.0884315520524979,0.728497803211212,1.3102238339291
6.331013453,-0.813248991966248,0.10376100987196,0.61091274023056,1.02242586346384
6.341013453,-0.447431892156601,0.10004548728466,0.382679611444473,0.597200203164864
6.351013453,-0.0755911767482758,0.0808684974908829,0.0821652039885521,0.137858117770055
6.361013453,0.23227122426033,0.0495367459952831,-0.261488646268845,0.353242300624807
6.371013453,0.46544736623764,0.00554134417325258,-0.651689767837524,0.800856735463297
6.381013453,0.636985242366791,-0.0518501624464989,-1.10110402107239,1.27313341938722
6.391013453,0.782252609729767,-0.118894577026367,-1.61533868312836,1.79871457632559
6.401013453,1.00361359119415,-0.185183107852936,-2.2153582572937,2.43912796548748
6.411013453,1.35901343822479,-0.234533548355103,-2.90886616706848,3.21922752978029
6.421013453,1.72385954856873,-0.255411803722382,-3.61188244819641,4.0103144206236
6.431013453,1.86284780502319,-0.258504509925842,-4.14925765991211,4.55558620318736
6.441013453,1.66510319709778,-0.261121362447739,-4.3395676612854,4.65538403461904
6.451013453,1.26793944835663,-0.244581416249275,-4.09149026870728,4.29042924808227
6.461013453,0.917938351631165,-0.160352990031242,-3.46356701850891,3.58672836865437
6.471013453,0.778182566165924,0.0197614673525095,-2.63697099685669,2.74946806857979
6.481013453,0.867799043655396,0.269684076309204,-1.84393584728241,2.05570038918055
6.491013453,1.08847868442535,0.518762469291687,-1.27028369903564,1.7514339902005
6.501013453,1.29917216300964,0.690899729728699,-1.00744724273682,1.78329489781594
6.511013453,1.39748346805573,0.741160392761231,-1.06588423252106,1.90745588898513
6.521013453,1.35508489608765,0.675559639930725,-1.3681116104126,2.04067765246105
6.531013453,1.20038938522339,0.543155014514923,-1.75032806396484,2.19079902717082
6.541013453,0.969844937324524,0.39844873547554,-2.02626156806946,2.2814680667262
6.551013453,0.694804728031158,0.270410150289536,-2.10323452949524,2.23147277499304
6.561013453,0.420285165309906,0.167013242840767,-2.02352023124695,2.07344331239836
6.571013453,0.194085448980331,0.0888605937361717,-1.89360880851746,1.90560218469647
6.581013453,0.036075696349144,0.0293270722031593,-1.8016129732132,1.80221276165751
6.591013453,-0.0721130669116974,-0.0242158342152834,-1.77027797698975,1.77191162783618
6.601013453,-0.155334368348122,-0.0743956118822098,-1.76144278049469,1.76984297100458
6.611013453,-0.221969962120056,-0.104870341718197,-1.69862484931946,1.71627353046687
6.621013453,-0.276283651590347,-0.0959190204739571,-1.49833583831787,1.52661173813531
6.631013453,-0.327842116355896,-0.0434588305652142,-1.11767899990082,1.16557945676393
6.641013453,-0.38915142416954,0.037364948540926,-0.579057157039642,0.698671712202148
6.651013453,-0.464382767677307,0.122587740421295,0.0284796357154846,0.481134283405082
6.661013453,-0.540975749492645,0.196868374943733,0.588156461715698,0.823006647634176
6.671013453,-0.598214983940125,0.259034693241119,1.00999069213867,1.20209872203566
6.681013453,-0.616294384002686,0.316791355609894,1.26173162460327,1.43949373852977
6.691013453,-0.584525048732758,0.377245783805847,1.36700117588043,1.53384358030857
6.701013453,-0.51257598400116,0.436785697937012,1.37041115760803,1.52693897264877
6.711013453,-0.431839466094971,0.480789601802826,1.30489134788513,1.4561543171877
6.721013453,-0.381415903568268,0.492584526538849,1.18767988681793,1.34115663545768
6.731013453,-0.381722509860992,0.468028008937836,1.0398873090744,1.2025505840749
6.741013453,-0.421676605939865,0.421821415424347,0.897093117237091,1.07727458315033
6.751013453,-0.466109573841095,0.380900621414185,0.795567810535431,0.997632978294211
6.761013453,-0.475852966308594,0.368789523839951,0.751828968524933,0.963165902818434
6.771013453,-0.449013918638229,0.38469597697258,0.766957223415375,0.968415136384581
6.781013453,-0.41956228017807,0.409846574068069,0.842033088207245,1.02617076690938
6.791013453,-0.397514015436173,0.440834432840347,0.985341548919678,1.15032619620406
6.801013453,-0.360015988349915,0.490959912538528,1.20938754081726,1.35398351964543
6.811013453,-0.305627763271332,0.557905316352844,1.50934088230133,1.63791836508514
6.821013453,-0.287845432758331,0.608081877231598,1.83451926708221,1.95399066115302
6.831013453,-0.348690569400787,0.611562132835388,2.09155559539795,2.20685254698806
6.841013453,-0.458273977041245,0.57392144203186,2.20599699020386,2.32504270507997
6.851013453,-0.561993479728699,0.518637895584106,2.18017148971558,2.31040465342375
6.861013453,-0.636167645454407,0.462160885334015,2.07236385345459,2.21652744132819
6.871013453,-0.687966704368591,0.407488435506821,1.92987513542175,2.08896219441873
6.881013453,-0.714519381523132,0.355162382125855,1.76535415649414,1.93730574822372
6.891013453,-0.701110482215881,0.308634251356125,1.58640551567078,1.7616734855057
6.901013453,-0.659851133823395,0.268204271793366,1.41694676876068,1.58589886049444
6.911013453,-0.664650440216065,0.221076756715775,1.26947999000549,1.44990157771613
6.921013453,-0.853808879852295,0.140510603785515,1.13255822658539,1.42527926024939
6.931013453,-1.35546505451202,0.00811240077018738,1.01527333259583,1.69355580508284
6.941013453,-2.15646553039551,-0.139438539743423,1.08968067169189,2.42016335324884
6.951013453,-2.95263695716858,-0.175835743546486,1.74098718166351,3.432203312198
6.961013453,-3.21699690818787,0.00738313607871532,3.10179328918457,4.46880803199456
6.971013453,-2.65742444992065,0.319584935903549,4.60097026824951,5.32287202998612
6.981013453,-1.54591584205627,0.521926522254944,5.25345849990845,5.50100802540898
6.991013453,-0.466115951538086,0.479831457138062,4.45836448669434,4.50827197535317
7.001013453,0.157263457775116,0.243793606758118,2.38774347305298,2.40530372530261
7.011013453,0.258033961057663,-0.0810068994760513,-0.376288682222366,0.463397038391999
7.021013453,0.0280772093683481,-0.414321154356003,-3.15788698196411,3.18507465210648
7.031013453,-0.197284638881683,-0.671985685825348,-5.19942808151245,5.24638336051733
7.041013453,-0.101295351982117,-0.744922757148743,-5.86398696899414,5.91198053404985
7.051013453,0.396398276090622,-0.567561447620392,-5.07838296890259,5.12535180928611
7.061013453,1.0815235376358,-0.204846635460854,-3.32823157310486,3.50553572378487
7.071013453,1.61839616298676,0.173099681735039,-1.29947459697723,2.0827395104468
7.081013453,1.79965507984161,0.42257621884346,0.441943764686585,1.90069549330689
7.091013453,1.62524807453156,0.506541669368744,1.58738386631012,2.32761751703261
7.101013453,1.22371518611908,0.464910805225372,2.07100963592529,2.45004118856177
7.111013453,0.750406622886658,0.35774302482605,2.01973438262939,2.18412846413831
7.121013453,0.321962237358093,0.230624258518219,1.6403933763504,1.6875241213316
7.131013453,-0.0091929892078042,0.112272642552853,1.14961338043213,1.15511929331345
7.141013453,-0.217443212866783,0.0242680013179779,0.728844881057739,0.760976574773408
7.151013453,-0.26838418841362,-0.0167443361133337,0.49220871925354,0.56087420041532
7.161013453,-0.148174807429314,-0.00675713969394565,0.478826463222504,0.50127458979658
7.171013453,0.107097528874874,0.0381538346409798,0.634804904460907,0.644905312830137
7.181013453,0.415101528167725,0.0879258587956429,0.833386242389679,0.935186005207798
7.191013453,0.687347054481506,0.11614253371954,0.944225907325745,1.17366844786265
7.201013453,0.866748213768005,0.11354273557663,0.90700364112854,1.25968250916359
7.211013453,0.932049870491028,0.0881600752472878,0.75595223903656,1.20330916544932
7.221013453,0.890382766723633,0.0556316897273064,0.577106773853302,1.06251051035164
7.231013453,0.769362151622772,0.0298966448754072,0.457183808088303,0.895449029315767
7.241013453,0.602197766304016,0.0181624088436365,0.449033081531525,0.751400513139462
7.251013453,0.421835243701935,0.019550671800971,0.543990731239319,0.688660378758085
7.261013453,0.262681007385254,0.0278067961335182,0.680298209190369,0.729780914370721
7.271013453,0.155549421906471,0.034281812608242,0.776339709758759,0.792511331325589
7.281013453,0.113644935190678,0.0311816409230232,0.769527196884155,0.778498280518031
7.291013453,0.120486177504063,0.0148567650467157,0.642901360988617,0.654262793071874
7.301013453,0.147444471716881,-0.0134599842131138,0.417815238237381,0.443272621214357
7.311013453,0.175716504454613,-0.0492812357842922,0.133276522159576,0.225981329974684
7.321013453,0.199469238519669,-0.0881323963403702,-0.176396802067757,0.280483739600077
7.331013453,0.209898248314857,-0.126143574714661,-0.479056417942047,0.53801907741167
7.341013453,0.184123814105988,-0.159046694636345,-0.731491506099701,0.770893801694949
7.351013453,0.10923209041357,-0.181854039430618,-0.885746359825134,0.910795891062771
7.361013453,0.00756944436579943,-0.189142420887947,-0.904812633991242,0.924401457429362
7.371013453,-0.0767228677868843,-0.177343249320984,-0.779436647891998,0.803030830415796
7.381013453,-0.113122209906578,-0.14908292889595,-0.548089504241943,0.579158405552852
7.391013453,-0.104744717478752,-0.115462243556976,-0.299369931221008,0.337528282142675
7.401013453,-0.074999250471592,-0.0897410362958908,-0.125253543257713,0.171367415996662
7.411013453,-0.0429392978549004,-0.0775830820202828,-0.0599636286497116,0.107044638711513
7.421013453,-0.01417753752321,-0.0747490599751473,-0.0693099200725555,0.102918849380734
7.431013453,0.0151495356112719,-0.0734566152095795,-0.0955527946352959,0.121473121759097
7.441013453,0.0451739355921745,-0.069625049829483,-0.100229665637016,0.13013192496214
7.451013453,0.067156195640564,-0.0645638480782509,-0.0784177407622337,0.121769401566395
7.461013453,0.0702883079648018,-0.0614178963005543,-0.0476928241550922,0.104819891711588
7.471013453,0.0497145354747772,-0.0457882210612297,-0.0248428955674171,0.0720087889468953
7.481013453,0.00958476960659027,-0.0416330099105835,-0.0275182835757732,0.0508176273903341
7.491013453,-0.0314499251544476,-0.0584231242537499,-0.0463439524173737,0.0809328188404015
7.501013453,-0.0366111993789673,-0.0486786626279354,-0.0410794056952,0.0734677458990112
7.511013453,-0.00543488236144185,-0.0351217985153198,0.0145735759288073,0.0384118183972868
7.521013453,0.0636386945843697,-0.0298317018896341,0.128529384732246,0.146491012098642
7.531013453,0.183938562870026,-0.0104492399841547,0.280331343412399,0.335452297095038
7.541013453,0.322258174419403,0.0109134139493108,0.418209135532379,0.528079837360692
7.551013453,0.422874301671982,0.0207856316119432,0.477262526750565,0.637992348650364
7.561013453,0.430277675390244,0.0079739997163415,0.403499305248261,0.589927242926225
7.571013453,0.328480899333954,-0.0309953317046165,0.186885431408882,0.379192004514344
7.581013453,0.145947620272636,-0.0885241776704788,-0.115714557468891,0.206220989973624
7.591013453,-0.0618128702044487,-0.147651016712189,-0.399780571460724,0.430634600301135
7.601013453,-0.228287413716316,-0.191254630684853,-0.582423508167267,0.654148775039402
7.611013453,-0.295854568481445,-0.210890471935272,-0.651150047779083,0.745654813950213
7.621013453,-0.25603461265564,-0.209104046225548,-0.642715036869049,0.722745351865512
7.631013453,-0.181173756718636,-0.196934372186661,-0.59763902425766,0.654812553627178
7.641013453,-0.168831616640091,-0.189130708575249,-0.552573680877686,0.607957410105508
7.651013453,-0.25522443652153,-0.197296351194382,-0.54477858543396,0.633126425242049
7.661013453,-0.388543516397476,-0.220819115638733,-0.584534645080566,0.735804252002835
7.671013453,-0.49493733048439,-0.244629323482513,-0.619591534137726,0.829879591380381
7.681013453,-0.541293025016785,-0.247901976108551,-0.556486189365387,0.814941965813981
7.691013453,-0.552709996700287,-0.221755981445313,-0.342871338129044,0.687186154014766
7.701013453,-0.593475341796875,-0.177337929606438,-0.0157137829810381,0.619603619722796
7.711013453,-0.702440202236176,-0.131570994853973,0.340137422084808,0.791471180970579
7.721013453,-0.85982608795166,-0.090468168258667,0.666076004505158,1.09139481159106
7.731013453,-1.01218378543854,-0.0510857664048672,0.937998950481415,1.38093004969046
7.741013453,-1.12264013290405,-0.0160065535455942,1.1204172372818,1.58616262197841
7.751013453,-1.1866717338562,0.00358138000592589,1.16340446472168,1.66184011828767
7.761013453,-1.21304452419281,-0.000317256606649607,1.05773138999939,1.60943245018732
7.771013453,-1.20448064804077,-0.0250920169055462,0.848346292972565,1.47346349585505
7.781013453,-1.15460860729218,-0.0601275786757469,0.598994314670563,1.30212539747838
7.791013453,-1.05712985992432,-0.0932489559054375,0.364807844161987,1.12218700388268
7.801013453,-0.90529066324234,-0.115989230573177,0.181310027837753,0.930525664749361
7.811013453,-0.67594712972641,-0.125666618347168,0.0561618730425835,0.689819380081363
7.821013453,-0.356097131967545,-0.126857921481133,-0.0413530133664608,0.380273811026359
7.831013453,0.0142509965226054,-0.127426430583,-0.150718182325363,0.197880157156985
7.841013453,0.365964025259018,-0.133940845727921,-0.290488868951798,0.486059256596342
7.851013453,0.653430461883545,-0.150139033794403,-0.4622503221035,0.814363836544115
7.861013453,0.876889824867249,-0.179641768336296,-0.68242746591568,1.12557282133268
7.871013453,1.08045256137848,-0.231408879160881,-1.01774108409882,1.5022399012829
7.881013453,1.33927536010742,-0.31361985206604,-1.5581728219986,2.07844134991004
7.891013453,1.69966924190521,-0.418788313865662,-2.33586144447327,2.9189908995209
7.901013453,2.09899950027466,-0.522133052349091,-3.26644945144653,3.91766688800413
7.911013453,2.34870290756226,-0.605456531047821,-4.15073537826538,4.80745121029467
7.921013453,2.23219299316406,-0.688534140586853,-4.75837755203247,5.30084160762901
7.931013453,1.67776262760162,-0.809360980987549,-4.91860914230347,5.25953120789991
7.941013453,0.877305030822754,-0.949717223644257,-4.57647466659546,4.75560167549633
7.951013453,0.179534241557121,-1.01820743083954,-3.83873248100281,3.97553090502568
7.961013453,-0.154079183936119,-0.929629981517792,-2.93154263496399,3.07926850373117
7.971013453,-0.103379875421524,-0.697462022304535,-2.104327917099,2.21930994993523
7.981013453,0.154435828328133,-0.423191577196121,-1.52005302906036,1.58540302359896
7.991013453,0.409843355417252,-0.211184307932854,-1.21463930606842,1.29919938105863
8.001013453,0.529025375843048,-0.117147535085678,-1.13973796367645,1.26198019758944
8.011013453,0.493956834077835,-0.127672359347343,-1.18782687187195,1.2927591665947
8.021013453,0.343627244234085,-0.196147620677948,-1.22617018222809,1.2884280685637
8.031013453,0.122194893658161,-0.281042516231537,-1.1582123041153,1.1980702105344
8.041013453,-0.113727979362011,-0.352714836597443,-0.981726109981537,1.04934644625367
8.051013453,-0.306600838899612,-0.396243929862976,-0.776435494422913,0.924048377178897
8.061013453,-0.421297609806061,-0.412710398435593,-0.644174635410309,0.873374209552337
8.071013453,-0.473891943693161,-0.4291672706604,-0.668594896793366,0.925082297161453
8.081013453,-0.501146197319031,-0.471636027097702,-0.871977627277374,1.11082538484503
8.091013453,-0.523837506771088,-0.534417688846588,-1.18005836009979,1.39733522566838
8.101013453,-0.54170286655426,-0.579789638519287,-1.44108700752258,1.64509263684992
8.111013453,-0.541579365730286,-0.562181890010834,-1.50322997570038,1.69382910787515
8.121013453,-0.513597965240479,-0.457915186882019,-1.28763484954834,1.45995640142017
8.131013453,-0.456141531467438,-0.274736762046814,-0.820077478885651,0.977789576813371
8.141013453,-0.37001383304596,-0.0417277589440346,-0.220975607633591,0.432991526107485
8.151013453,-0.245478898286819,0.211857154965401,0.349301666021347,0.476607802600244
8.161013453,-0.0842571780085564,0.451623290777206,0.761042177677155,0.888958978256018
8.171013453,0.0717883557081223,0.62892609834671,0.950484812259674,1.14198204168595
8.181013453,0.163621366024017,0.705299735069275,0.918883740901947,1.16985768237094
8.191013453,0.165601566433907,0.686346352100372,0.738462686538696,1.02167623700309
8.201013453,0.0992651209235191,0.6187824010849,0.538851857185364,0.826502600187362
8.211013453,-0.00595654593780637,0.547140955924988,0.440397948026657,0.702388111172241
8.221013453,-0.131601870059967,0.492505759000778,0.490243434906006,0.70726204501631
8.231013453,-0.255489498376846,0.462657004594803,0.659917175769806,0.845468548532401
8.241013453,-0.360286384820938,0.458382576704025,0.912699341773987,1.08302398597069
8.251013453,-0.439590960741043,0.481127083301544,1.25582194328308,1.41485413957863
8.261013453,-0.478827506303787,0.539759933948517,1.70034313201904,1.84710133281678
8.271013453,-0.454008042812347,0.635444760322571,2.18297982215881,2.31847239584866
8.281013453,-0.359047174453735,0.743541955947876,2.57139563560486,2.70071194845835
8.291013453,-0.207048267126083,0.831893682479858,2.76532793045044,2.89516055630756
8.301013453,-0.0219865217804909,0.884849965572357,2.77797436714172,2.9155761785983
8.311013453,0.0808791443705559,0.883402109146118,2.76203608512878,2.90099707996948
8.321013453,-0.268543869256973,0.763151168823242,3.00045537948608,3.10761130138226
8.331013453,-1.36512005329132,0.511459171772003,3.65569257736206,3.93563609400918
8.341013453,-2.74019742012024,0.293231338262558,4.46707105636597,5.24875131260716
8.351013453,-3.43304872512817,0.2646324634552,4.94302415847778,6.02406355553405
8.361013453,-2.99987196922302,0.372634917497635,4.8399133682251,5.70638677495598
8.371013453,-1.91864550113678,0.458395332098007,4.23361396789551,4.67063315501031
8.381013453,-0.793852686882019,0.421878904104233,3.14524149894714,3.27119672060505
8.391013453,0.244008660316467,0.2510606944561,1.45504951477051,1.49657635590173
8.401013453,1.07030880451202,-0.00975191406905651,-0.75784832239151,1.31148393684238
8.411013453,1.38109886646271,-0.289623349905014,-3.03373217582703,3.34587009287614
8.421013453,1.09438943862915,-0.532068073749542,-4.68084144592285,4.83643063843117
8.431013453,0.570065379142761,-0.667712330818176,-5.15105295181274,5.22533834364844
8.441013453,0.237727403640747,-0.624440848827362,-4.41965484619141,4.46987579822854
8.451013453,0.159884557127953,-0.426061779260635,-2.93470549583435,2.96977912623735
8.461013453,0.152535483241081,-0.188197046518326,-1.26448261737823,1.28747873443313
8.471013453,0.067920595407486,-0.00836258567869663,0.186733186244965,0.198877909695717
8.481013453,-0.0661448091268539,0.10515246540308,1.27262485027313,1.27867360428199
8.491013453,-0.111010000109673,0.200737193226814,2.0520167350769,2.06479813102991
8.501013453,0.0190034583210945,0.308297842741013,2.64073443412781,2.65873786651773
8.511013453,0.282616019248962,0.407583177089691,3.04264831542969,3.08280791356999
8.521013453,0.573509454727173,0.452149212360382,3.10646271705627,3.19115380659727
8.531013453,0.808777570724487,0.409954100847244,2.6614933013916,2.81171302181799
8.541013453,0.929112613201141,0.282980114221573,1.71415340900421,1.97019032142965
8.551013453,0.8864426612854,0.106634415686131,0.515654861927033,1.03104385308504
8.561013453,0.688576698303223,-0.0674521625041962,-0.569065749645233,0.895836754711455
8.571013453,0.417122185230255,-0.193925768136978,-1.24647569656372,1.32864584561982
8.581013453,0.176818385720253,-0.245020046830177,-1.38542771339417,1.41799489206342
8.591013453,0.0307206604629755,-0.216337069869041,-1.02397656440735,1.04703079765319
8.601013453,0.000341742852469906,-0.123659811913967,-0.324047803878784,0.346841238997669
8.611013453,0.0974105522036552,0.0017001973465085,0.465304732322693,0.475394783599411
8.621013453,0.302775651216507,0.116983585059643,1.07771217823029,1.12553178242502
8.631013453,0.535470604896545,0.181476101279259,1.33010041713715,1.44527833433986
8.641013453,0.68306303024292,0.17584639787674,1.1842348575592,1.37837195879383
8.651013453,0.67494535446167,0.11157637834549,0.752700865268707,1.01713278990029
8.661013453,0.514799952507019,0.0194442104548216,0.232543766498566,0.56522002066344
8.671013453,0.264944404363632,-0.067909948527813,-0.188073545694351,0.33193215737963
8.681013453,0.0218832530081272,-0.123483084142208,-0.384293556213379,0.40423815527312
8.691013453,-0.128973320126534,-0.129290580749512,-0.302064478397369,0.352977507335074
8.701013453,-0.161344140768051,-0.0830626785755158,0.042587973177433,0.186400310599746
8.711013453,-0.100945092737675,-0.000663257960695773,0.557053625583649,0.566126393515466
8.721013453,0.0114457244053483,0.089860275387764,1.08744060993195,1.09120710858622
8.731013453,0.134491249918938,0.159003049135208,1.47023415565491,1.48491021223283
8.741013453,0.22510527074337,0.185509949922562,1.58969724178314,1.61623749646197
8.751013453,0.251885771751404,0.162098959088326,1.40911114215851,1.44059596192117
8.761013453,0.215969771146774,0.0957401618361473,0.96892511844635,0.997308881838458
8.771013453,0.13672162592411,0.00398699985817075,0.375020742416382,0.39918574173652
8.781013453,0.036664430052042,-0.090199887752533,-0.225340560078621,0.245476410675562
8.791013453,-0.0420311763882637,-0.165456771850586,-0.695530831813812,0.71617435107899
8.801013453,-0.0533491484820843,-0.208111822605133,-0.956108152866364,0.97994870392757
8.811013453,0.0117565933614969,-0.216393485665321,-1.010298371315,1.03327980586461
8.821013453,0.113021068274975,-0.201236501336098,-0.93302184343338,0.961144969121637
8.831013453,0.190573275089264,-0.180407226085663,-0.822407901287079,0.863261082466706
8.841013453,0.213635057210922,-0.167815968394279,-0.748771369457245,0.796530414131502
8.851013453,0.188755974173546,-0.166041254997253,-0.721111476421356,0.763675505416964
8.861013453,0.144829764962196,-0.167501911520958,-0.701031684875488,0.735172071274165
8.871013453,0.120684199035168,-0.160786285996437,-0.639622330665588,0.670472692618698
8.881013453,0.151546448469162,-0.138079017400742,-0.515511095523834,0.554782687814025
8.891013453,0.244760274887085,-0.10080349445343,-0.352284729480743,0.440651185499534
8.901013453,0.339342147111893,-0.0636418908834457,-0.201836943626404,0.399926911940392
8.911013453,0.343583583831787,-0.0453581139445305,-0.104959771037102,0.362109915792789
8.921013453,0.236467957496643,-0.0323335565626621,-0.0547523163259029,0.244868066406538
8.931013453,0.0584976449608803,-0.0428221896290779,-0.0311369262635708,0.0789000796434386
8.941013453,-0.115018293261528,-0.0756241828203201,-0.0110837537795305,0.13809806084765
8.951013453,-0.228953868150711,-0.0904266461730003,0.0331884473562241,0.248391475532449
8.961013453,-0.273915946483612,-0.0866717398166657,0.117166697978973,0.310274026202898
8.971013453,-0.239963099360466,-0.0652196556329727,0.239152923226357,0.345007265464477
8.981013453,-0.125121533870697,-0.0332480669021606,0.357606738805771,0.380320143865909
8.991013453,0.0465153530240059,-0.00518043851479888,0.405099421739578,0.407794134955242
9.001013453,0.211923152208328,0.00371445738710463,0.338059276342392,0.39901039329413
9.011013453,0.307192772626877,-0.0131725370883942,0.166082769632339,0.349463019010999
9.021013453,0.307142734527588,-0.0522227808833122,-0.0635907873511314,0.317974317283971
9.031013453,0.229605421423912,-0.102568633854389,-0.290614515542984,0.384312074806779
9.041013453,0.109960287809372,-0.150676652789116,-0.459711223840714,0.496114027130838
9.051013453,-0.030946359038353,-0.182307571172714,-0.511965930461884,0.544337066162435
9.061013453,-0.179218038916588,-0.188386544585228,-0.415868043899536,0.490463888161704
9.071013453,-0.3367540538311,-0.173306211829185,-0.198336482048035,0.427522743186199
9.081013453,-0.524254858493805,-0.150918334722519,0.0765152648091316,0.550884821136496
9.091013453,-0.733515381813049,-0.131114274263382,0.338877975940704,0.818580509693228
9.101013453,-0.924113154411316,-0.11312859505415,0.552598178386688,1.08265781663979
9.111013453,-1.06047487258911,-0.0939303115010262,0.707719624042511,1.27839623163808
9.121013453,-1.1595675945282,-0.0728987529873848,0.824936389923096,1.4249320271109
9.131013453,-1.26223409175873,-0.0500264689326286,0.932816386222839,1.57031333191745
9.141013453,-1.35857367515564,-0.0257797613739967,1.02254569530487,1.70058423075981
9.151013453,-1.40257120132446,-0.00490683130919933,1.05368900299072,1.75427779065969
9.161013453,-1.34855771064758,0.00370061723515391,0.982017815113068,1.66822677796348
9.171013453,-1.1778279542923,-0.00205152179114521,0.811495542526245,1.43031741728681
9.181013453,-0.878550589084625,-0.0109048970043659,0.604768812656403,1.06663741314537
9.191013453,-0.460684269666672,-0.00849779229611158,0.437002867460251,0.635038357078298
9.201013453,-0.00250504957512021,0.00483656628057361,0.330974221229553,0.331019036862337
9.211013453,0.396149158477783,0.0124635007232428,0.233579650521278,0.46005320100025
9.221013453,0.680259883403778,-0.00346427178010345,0.0664109662175179,0.683502689520263
9.231013453,0.876663029193878,-0.0498082228004932,-0.217241987586021,0.90455127382822
9.241013453,1.10234642028809,-0.122868798673153,-0.631970882415772,1.2765780697751
9.251013453,1.49723398685455,-0.213981062173843,-1.19164025783539,1.92548799280998
9.261013453,2.06026339530945,-0.313907325267792,-1.90676331520081,2.82470695951002
9.271013453,2.57400608062744,-0.415184557437897,-2.72216391563416,3.76935828801437
9.281013453,2.73891997337341,-0.517843663692474,-3.47222876548767,4.45266406552867
9.291013453,2.41873550415039,-0.623311281204224,-3.92643594741821,4.6535682697788
9.301013453,1.75969994068146,-0.712209165096283,-3.91929340362549,4.35484173762764
9.311013453,1.09216976165771,-0.732699871063232,-3.47162508964539,3.71239338599654
9.321013453,0.717201113700867,-0.634104371070862,-2.7762668132782,2.93668575258144
9.331013453,0.7086501121521,-0.4308962225914,-2.07942867279053,2.23872288176096
9.341013453,0.916036903858185,-0.206531926989555,-1.569979429245,1.82937542739279
9.351013453,1.14572966098785,-0.0479334257543087,-1.3456928730011,1.76801679228955
9.361013453,1.28901779651642,0.00639623403549194,-1.41021728515625,1.91058121599144
9.371013453,1.3166925907135,-0.0286095198243856,-1.65980350971222,2.11883118108013
9.381013453,1.24684405326843,-0.104278415441513,-1.92660999298096,2.29724185625979
9.391013453,1.10050141811371,-0.177590236067772,-2.06385540962219,2.34566425880681
9.401013453,0.891046047210693,-0.228607878088951,-1.99333500862122,2.19536080787853
9.411013453,0.667149126529694,-0.241920933127403,-1.72521591186523,1.86547142499357
9.421013453,0.498237669467926,-0.206832140684128,-1.35281622409821,1.45641067212519
9.431013453,0.417568236589432,-0.140349850058556,-1.02732801437378,1.11779432890717
9.441013453,0.387840867042542,-0.0958966612815857,-0.894663631916046,0.979816167485757
9.451013453,0.341948330402374,-0.123584225773811,-1.01134169101715,1.0747156542614
9.461013453,0.237464442849159,-0.23205403983593,-1.31884002685547,1.35999171154017
9.471013453,0.0734598115086556,-0.384800314903259,-1.6765468120575,1.72170753592957
9.481013453,-0.103012584149838,-0.510146498680115,-1.91578388214111,1.98521760159447
9.491013453,-0.229008167982101,-0.535331130027771,-1.89302754402161,1.9805497828138
9.501013453,-0.276878774166107,-0.431718111038208,-1.54389202594757,1.62685124420354
9.511013453,-0.271045744419098,-0.232081726193428,-0.918272614479065,0.985166137107261
9.521013453,-0.259095370769501,-0.00495899748057127,-0.161792352795601,0.305502484823501
9.531013453,-0.276753157377243,0.188227921724319,0.566854536533356,0.658290305430192
9.541013453,-0.322330594062805,0.321776986122131,1.14778757095337,1.23484968668327
9.551013453,-0.364724785089493,0.399241894483566,1.49692523479462,1.5916040392429
9.561013453,-0.378367900848389,0.428293228149414,1.56127941608429,1.66258556855266
9.571013453,-0.374009341001511,0.404723614454269,1.33548641204834,1.44471732460681
9.581013453,-0.387856841087341,0.32857671380043,0.908418536186218,1.04097061577974
9.591013453,-0.434447795152664,0.227207899093628,0.443911194801331,0.661381482197299
9.601013453,-0.496246814727783,0.144605129957199,0.104240089654922,0.527292652166399
9.611013453,-0.544404864311218,0.112338647246361,-0.0314339548349381,0.556762715586652
9.621013453,-0.555638730525971,0.131284609436989,-0.0110997231677175,0.571045752448904
9.631013453,-0.51690149307251,0.181906208395958,0.0494483821094036,0.550201930827965
9.641013453,-0.435622066259384,0.238625943660736,0.0535397119820118,0.49957524594318
9.651013453,-0.337607860565186,0.285785377025604,-0.0115255704149604,0.442476200501743
9.661013453,-0.239940747618675,0.327286392450333,-0.0850737392902374,0.414638982933088
9.671013453,-0.149791955947876,0.369762569665909,-0.0985411778092384,0.410940812911858
9.681013453,-0.0871529430150986,0.404413819313049,-0.0124911805614829,0.413886702274161
9.691013453,-0.0882548242807388,0.40757891535759,0.162582293152809,0.447596345270735
9.701013453,-0.185158625245094,0.358300894498825,0.390634447336197,0.561478867765268
9.711013453,-0.475650697946548,0.211070388555527,0.683837056159973,0.859317993969379
9.721013453,-1.18129324913025,-0.118172764778137,1.16693687438965,1.66468021300978
9.731013453,-2.38138461112976,-0.608243703842163,1.99304223060608,3.16435939841993
9.741013453,-3.64676570892334,-0.999458372592926,3.12978434562683,4.90849948807739
9.751013453,-4.21487760543823,-1.00186765193939,4.24001550674439,6.06190263186899
9.761013453,-3.72188520431519,-0.637540996074677,4.82347917556763,6.12575214589284
9.771013453,-2.54459500312805,-0.196357354521751,4.53476476669312,5.20361522692256
9.781013453,-1.26925957202911,0.0806545093655586,3.32227182388306,3.55738880119053
9.791013453,-0.22167506814003,0.135784760117531,1.34782314300537,1.37266330967792
9.801013453,0.38394969701767,0.00579365901648998,-0.991190552711487,1.06297208246937
9.811013453,0.422019422054291,-0.24730259180069,-3.08035826683044,3.11895271149356
9.821013453,0.0728423297405243,-0.512697339057922,-4.23785924911499,4.26938117082424
9.831013453,-0.243000462651253,-0.612980246543884,-4.0403938293457,4.09384615046982
9.841013453,-0.200257048010826,-0.412133365869522,-2.60461807250977,2.64461568099893
9.851013453,0.164674282073975,0.0254923142492771,-0.456239491701126,0.485717974806435
9.861013453,0.585568368434906,0.476342707872391,1.72081255912781,1.87909248125437
9.871013453,0.814105987548828,0.743441879749298,3.29966568946838,3.47897514359946
9.881013453,0.761931121349335,0.775180339813232,3.93828940391541,4.08553142466264
9.891013453,0.500960946083069,0.644125640392304,3.73971557617188,3.82770587960645
9.901013453,0.16263872385025,0.453719526529312,3.09272289276123,3.13005553539534
9.911013453,-0.138251483440399,0.276866018772125,2.34747743606567,2.36778769695716
9.921013453,-0.345261424779892,0.137210294604301,1.64831304550171,1.68966505922255
9.931013453,-0.453440606594086,0.0306237787008286,1.01533079147339,1.11240407031092
9.941013453,-0.4580237865448,-0.0377343744039536,0.514958560466766,0.69021155528613
9.951013453,-0.340445071458817,-0.0482772998511791,0.274160802364349,0.439770042084023
9.961013453,-0.120969519019127,0.00662299757823348,0.376893401145935,0.395886504513593
9.971013453,0.128452733159065,0.104467913508415,0.767099857330322,0.784764831478218
9.981013453,0.338425487279892,0.205345928668976,1.25988876819611,1.32061291417594
9.991013453,0.490569204092026,0.274626046419144,1.62803101539612,1.72237121331814
10.001013453,0.581040561199188,0.290392011404038,1.70124387741089,1.82103442704249
10.011013453,0.578665375709534,0.247367531061172,1.44441819190979,1.57555965472219
10.021013453,0.466434270143509,0.160978987812996,0.95593672990799,1.07577423024944
10.031013453,0.279412567615509,0.0607940293848515,0.407412856817246,0.49774745890896
10.041013453,0.0836578011512756,-0.0252953581511974,-0.0470721498131752,0.099268676456865
10.051013453,-0.0687627047300339,-0.0809323713183403,-0.318991929292679,0.336205605608926
10.061013453,-0.153509616851807,-0.0988073348999023,-0.369465559720993,0.412107864176306
10.071013453,-0.163639470934868,-0.0792023688554764,-0.208187401294708,0.276392629673814
10.081013453,-0.111459270119667,-0.0319662652909756,0.0989638343453407,0.152442945132249
10.091013453,-0.0229361616075039,0.0239422284066677,0.437676787376404,0.438930823727945
10.101013453,0.07136569917202,0.068178229033947,0.692722320556641,0.699718191366992
10.111013453,0.132723987102509,0.0879673808813095,0.803473651409149,0.819099398950002
10.121013453,0.118187665939331,0.0823227688670158,0.782381415367127,0.795528781230439
10.131013453,0.0164728574454784,0.0616744719445705,0.696090817451477,0.69901181797043
10.141013453,-0.127701103687286,0.0423431098461151,0.628789842128754,0.643021909734571
10.151013453,-0.243324100971222,0.0381442531943321,0.641740918159485,0.687381268442329
10.161013453,-0.287862449884415,0.0514083467423916,0.734860002994537,0.790902542775894
10.171013453,-0.256012231111527,0.0701509714126587,0.836066961288452,0.877195180690676
10.181013453,-0.154342144727707,0.0753196999430656,0.835794448852539,0.853256652814018
10.191013453,-0.00965822767466307,0.0538537763059139,0.660342991352081,0.662605747644886
10.201013453,0.127866119146347,0.00692641455680132,0.319637089967728,0.344333543133976
10.211013453,0.205472618341446,-0.0537494421005249,-0.109854891896248,0.239115237255478
10.221013453,0.195475846529007,-0.114131465554237,-0.526633203029633,0.573218395150609
10.231013453,0.112668678164482,-0.16309118270874,-0.843766272068024,0.866737842023895
10.241013453,0.00168742192909122,-0.192909047007561,-1.00648164749146,1.02480342239243
10.251013453,-0.0808163285255432,-0.197296351194382,-0.990236639976502,1.01292928297237
10.261013453,-0.0971305593848229,-0.173496782779694,-0.805937170982361,0.83010252545837
10.271013453,-0.0655028447508812,-0.116690814495087,-0.509915471076965,0.527182280147605
10.281013453,-0.00274884747341275,-0.0616052709519863,-0.216020867228508,0.224650351990947
10.291013453,0.0538016110658646,-0.0376193933188915,-0.0327040441334248,0.0733443018212391
10.301013453,0.0514338947832584,-0.0385881960391998,-0.00513253035023809,0.0645045523504437
10.311013453,-0.0047045536339283,-0.0632320120930672,-0.108795590698719,0.125924186452466
10.321013453,-0.0806012749671936,-0.0968047827482224,-0.260721057653427,0.289556905276302
10.331013453,-0.124202765524387,-0.121911704540253,-0.374476701021194,0.412942599250226
10.341013453,-0.0959115698933601,-0.129329979419708,-0.413094729185104,0.443365005493922
10.351013453,0.00163419090677053,-0.122589871287346,-0.406186401844025,0.424285682253318
10.361013453,0.124572187662125,-0.113804630935192,-0.416036248207092,0.448949756413183
10.371013453,0.217333555221558,-0.116514086723328,-0.49619996547699,0.554097295039038
10.381013453,0.254374861717224,-0.135165154933929,-0.649246454238892,0.710279626431551
10.391013453,0.246214553713799,-0.161604985594749,-0.818367660045624,0.869749047046396
10.401013453,0.218403488397598,-0.182183012366295,-0.926341354846954,0.969019627994598
10.411013453,0.215164914727211,-0.180863946676254,-0.908674001693726,0.951155165622817
10.421013453,0.267327010631561,-0.145359948277473,-0.726827442646027,0.787953917789486
10.431013453,0.326563507318497,-0.0856326669454575,-0.404676765203476,0.527010400519666
10.441013453,0.314039319753647,-0.0347949601709843,-0.0665706545114517,0.322897871852257
10.451013453,0.220330446958542,-0.0198115035891533,0.135170474648476,0.259247099787265
10.461013453,0.0956198647618294,-0.0401201844215393,0.152126669883728,0.184106793532997
10.471013453,-0.0445564538240433,-0.0775404945015907,0.0751355215907097,0.116803906054692
10.481013453,-0.236827790737152,-0.117250800132751,0.0288522522896528,0.265833792169838
10.491013453,-0.4771369099617,-0.151562422513962,0.0582932382822037,0.50401279784895
10.501013453,-0.701932370662689,-0.173762932419777,0.141363367438316,0.736808123815667
10.511013453,-0.870737373828888,-0.179680094122887,0.258717447519302,0.925960705460734
10.521013453,-0.992236018180847,-0.168005466461182,0.419971078634262,1.09047414431771
10.531013453,-1.08154690265656,-0.138833835721016,0.632596909999847,1.26063372441338
10.541013453,-1.12546992301941,-0.0951791107654572,0.865177929401398,1.42276999556172
10.551013453,-1.09813261032105,-0.0445298403501511,1.05995213985443,1.52688463064965
10.561013453,-0.998593926429749,0.00242520309984684,1.1710569858551,1.53901597640586
10.571013453,-0.850222170352936,0.0365941636264324,1.18302118778229,1.45731122362829
10.581013453,-0.662904500961304,0.0539304278790951,1.1004524230957,1.28582518405232
10.591013453,-0.42938232421875,0.0560011155903339,0.942722678184509,1.03741570899145
10.601013453,-0.159253239631653,0.0492812357842922,0.751569211483002,0.769835381223015
10.611013453,0.128533646464348,0.04163833335042,0.570664763450623,0.586440893289151
10.621013453,0.419865697622299,0.0351452194154263,0.408118695020676,0.586586105966548
10.631013453,0.705160319805145,0.023062851279974,0.227679520845413,0.741364239729199
10.641013453,0.968700468540192,-0.00440326612442732,-0.0172117035835981,0.968863369749728
10.651013453,1.19913303852081,-0.0558808110654354,-0.370024472475052,1.25616910459855
10.661013453,1.44646549224854,-0.140975847840309,-0.908150255680084,1.71373087059547
10.671013453,1.75866305828094,-0.263383656740189,-1.70495080947876,2.46355920690821
10.681013453,2.0445282459259,-0.403547197580338,-2.67965054512024,3.39462415195364
10.691013453,2.12668180465698,-0.522656857967377,-3.54524564743042,4.16709879773251
10.701013453,1.94120585918427,-0.581265211105347,-3.95757269859314,4.44618163124523
10.711013453,1.63385558128357,-0.544512391090393,-3.75555920600891,4.1316101890644
10.721013453,1.40677750110626,-0.39983806014061,-3.0648467540741,3.39590621747926
10.731013453,1.3388569355011,-0.179779097437859,-2.17126059532166,2.55719201281631
10.741013453,1.39566397666931,0.0517362467944622,-1.35417473316193,1.94533898920958
10.751013453,1.50068128108978,0.23820860683918,-0.77334064245224,1.70494674317234
10.761013453,1.59760200977325,0.35458642244339,-0.466532230377197,1.70168035617547
10.771013453,1.66762208938599,0.39744907617569,-0.431338042020798,1.76776177910241
10.781013453,1.69666492938995,0.370497167110443,-0.647597372531891,1.85346227109399
10.791013453,1.65205311775208,0.285698086023331,-1.03270852565765,1.96910888454594
10.801013453,1.51233983039856,0.17137499153614,-1.43587040901184,2.09243040070866
10.811013453,1.31800746917725,0.0713529288768768,-1.71885371208191,2.16718550493586
10.821013453,1.1429488658905,0.0211060810834169,-1.8369072675705,2.16356323835297
10.831013453,1.02502846717834,0.0220397524535656,-1.84174275398254,2.10788649624723
10.841013453,0.93688428401947,0.0416298173367977,-1.81362617015839,2.0417455983588
10.851013453,0.824462592601776,0.0432001277804375,-1.79651665687561,1.97713856774668
10.861013453,0.670742213726044,0.0217853076756001,-1.77564477920532,1.89823183484625
10.871013453,0.508989274501801,0.00649630790576339,-1.70227539539337,1.7767537266982
10.881013453,0.371970593929291,0.0220035556703806,-1.54505240917206,1.58934993827622
10.891013453,0.249061346054077,0.0590927675366402,-1.31467628479004,1.33936449223606
10.901013453,0.104142144322395,0.086042545735836,-1.05603861808777,1.06464382250286
10.911013453,-0.0759861543774605,0.0826953798532486,-0.822391927242279,0.830024640296551
10.921013453,-0.267260998487473,0.0561192855238915,-0.646394371986389,0.701714685364295
10.931013453,-0.439976364374161,0.025427371263504,-0.523918390274048,0.684628535838688
10.941013453,-0.581469595432282,0.00693599600344896,-0.419385552406311,0.71696529903468
10.951013453,-0.690516471862793,0.0124496603384614,-0.287646353244782,0.748136629561342
10.961013453,-0.763662219047546,0.0507674440741539,-0.10275174677372,0.772214503647462
10.971013453,-0.790188252925873,0.124451890587807,0.117623418569565,0.808530158206182
10.981013453,-0.764484107494354,0.22335396707058,0.32190153002739,0.85903640216907
10.991013453,-0.704939901828766,0.320874184370041,0.448597639799118,0.895064438919807
11.001013453,-0.648101985454559,0.385059028863907,0.444438189268112,0.875118245347265
11.011013453,-0.628904819488525,0.394740670919418,0.286475270986557,0.795870309875063
11.021013453,-0.663319706916809,0.34871718287468,0.00315340282395482,0.749404197456636
11.031013453,-0.739449560642242,0.269693672657013,-0.312677681446075,0.846928369037032
11.041013453,-0.821761667728424,0.198276862502098,-0.53351491689682,0.99962198820499
11.051013453,-0.876335144042969,0.171454831957817,-0.554937183856964,1.05133977481763
11.061013453,-0.899460792541504,0.197715803980827,-0.349205821752548,0.984919266949859
11.071013453,-0.902436435222626,0.260511308908463,0.0152666438370943,0.939409778584708
11.081013453,-0.885701656341553,0.33767706155777,0.411317855119705,1.03328389123645
11.091013453,-0.846234083175659,0.406701683998108,0.71193128824234,1.17828881963356
11.101013453,-0.801155984401703,0.440179705619812,0.830109357833862,1.23478363713873
11.111013453,-0.782995700836182,0.41501846909523,0.735221982002258,1.15146600472503
11.121013453,-0.814331710338593,0.328513890504837,0.468349546194077,0.995192849722002
11.131013453,-0.892765402793884,0.201222658157349,0.134448662400246,0.92498490009451
11.141013453,-0.991663217544556,0.0695207193493843,-0.135454729199409,1.00328313606487
11.151013453,-1.12575209140778,-0.0480452142655849,-0.198649480938911,1.14415371790687
11.161013453,-1.44384753704071,-0.191439881920815,0.12394193559885,1.46174776962661
11.171013453,-2.07738351821899,-0.393518507480621,0.925726056098938,2.3081048131396
11.181013453,-2.89189076423645,-0.586209297180176,2.02224469184876,3.57717026797538
11.191013453,-3.53128218650818,-0.657511115074158,2.99071097373962,4.67403753468483
11.201013453,-3.62240505218506,-0.548111915588379,3.4462776184082,5.02981853124416
11.211013453,-2.94142961502075,-0.268722742795944,3.26065063476563,4.39955255163686
11.221013453,-1.56611168384552,0.100445784628391,2.458909034729,2.91702396339128
11.231013453,0.0282092224806547,0.417259514331818,1.11594688892365,1.19173768985954
11.241013453,1.07282447814941,0.508625149726868,-0.542872905731201,1.30551250305322
11.251013453,1.10304796695709,0.292788445949554,-2.09777736663818,2.38811845842478
11.261013453,0.453556656837463,-0.0950417742133141,-3.08794164657593,3.1225198466087
11.271013453,-0.197318702936172,-0.390961289405823,-3.2330310344696,3.26255652367677
11.281013453,-0.464739412069321,-0.405416667461395,-2.49095726013184,2.56616707702159
11.291013453,-0.400131911039352,-0.15038388967514,-1.02211344242096,1.10789744547203
11.301013453,-0.197924479842186,0.228516310453415,0.79104208946228,0.846842010746333
11.311013453,0.0390992164611816,0.576588332653046,2.40808200836182,2.47645751287507
11.321013453,0.247094988822937,0.773829340934753,3.31419348716736,3.41229340074611
11.331013453,0.373469591140747,0.77947074174881,3.28641438484192,3.39817210889107
11.341013453,0.400226652622223,0.640912652015686,2.53419470787048,2.64444572989913
11.351013453,0.334455519914627,0.441071838140488,1.50501108169556,1.60357825416424
11.361013453,0.18900828063488,0.248036116361618,0.609151840209961,0.684333259165072
11.371013453,-0.00698070973157883,0.10262293368578,0.0844488143920898,0.133085683222735
11.381013453,-0.20162296295166,0.0259841680526733,-0.00590970274060965,0.203376303352378
11.391013453,-0.342614769935608,0.023662231862545,0.28127247095108,0.44391326259718
11.401013453,-0.383421629667282,0.0876937732100487,0.808762669563294,0.899332752453548
11.411013453,-0.289366781711578,0.1955226957798,1.38635921478271,1.42966923843806
11.421013453,-0.0652750134468079,0.3109050989151,1.82348024845123,1.85094652121655
11.431013453,0.223427429795265,0.393604725599289,1.98866868019104,2.03952141836554
11.441013453,0.4775031208992,0.416374802589417,1.84460973739624,1.95037491011264
11.451013453,0.626989543437958,0.378959834575653,1.45385074615479,1.62800750486506
11.461013453,0.658318102359772,0.303176999092102,0.948669672012329,1.19384804865152
11.471013453,0.602115750312805,0.218057498335838,0.475232303142548,0.797457328830456
11.481013453,0.49802365899086,0.145320564508438,0.136389464139938,0.536421212585851
11.491013453,0.375819206237793,0.0941496267914772,-0.0336441062390804,0.388890928007849
11.501013453,0.236595705151558,0.056135255843401,-0.0578258708119392,0.24994504591995
11.511013453,0.0949129536747932,0.0287713408470154,-0.0223591383546591,0.101667054139339
11.521013453,-0.035931970924139,0.00621418375521898,-0.0154103673994541,0.0395879026676453
11.531013453,-0.154811635613441,-0.0225188303738832,-0.0612986609339714,0.168021623831621
11.541013453,-0.228756919503212,-0.0480015650391579,-0.130219995975494,0.267565180504985
11.551013453,-0.241913482546806,-0.0597208961844444,-0.1677116304636,0.300359633559099
11.561013453,-0.214299380779266,-0.0565334223210812,-0.151897773146629,0.268687896877801
11.571013453,-0.178479194641113,-0.0456295907497406,-0.102390840649605,0.210762346543831
11.581013453,-0.154582753777504,-0.0347257591784,-0.0460980236530304,0.165005254160793
11.591013453,-0.143222197890282,-0.0250962749123573,0.0146811027079821,0.146143613475656
11.601013453,-0.137089982628822,-0.0129926158115268,0.0972189232707024,0.168564499360664
11.611013453,-0.131921261548996,0.00306078093126416,0.203405126929283,0.242458724919739
11.621013453,-0.125538870692253,0.0190928857773542,0.302659600973129,0.328218494913384
11.631013453,-0.113038100302219,0.0302160307765007,0.359342068433762,0.377911818791203
11.641013453,-0.0873999372124672,0.0366516560316086,0.371123164892197,0.383033283715924
11.651013453,-0.0491375103592873,0.0419949814677238,0.364307463169098,0.36999729879215
11.661013453,-0.0116064818575978,0.0469986908137798,0.357041448354721,0.360308455635664
11.671013453,0.00947617832571268,0.048150610178709,0.339915961027145,0.343440154579005
11.681013453,0.0176812000572681,0.0432608127593994,0.293642282485962,0.297338044689263
11.691013453,0.035847868770361,0.0354816392064095,0.217612475156784,0.223381301276568
11.701013453,0.0763066038489342,0.0287819877266884,0.127718135714531,0.151535549620717
11.711013453,0.123682171106339,0.0219141282141209,0.0305088013410568,0.129260571808385
11.721013453,0.147118702530861,0.0089704841375351,-0.0842550471425057,0.169774247720352
11.731013453,0.123866349458694,-0.0138730565086007,-0.217365488409996,0.250565539882942
11.741013453,0.0526773706078529,-0.0431160256266594,-0.338708698749542,0.345481518534066
11.751013453,-0.0461331568658352,-0.0702435970306397,-0.406244963407517,0.414846238237959
11.761013453,-0.137534990906715,-0.0871827527880669,-0.400329917669296,0.432181384477075
11.771013453,-0.193078324198723,-0.0908791124820709,-0.334526866674423,0.396795258146974
11.781013453,-0.208964571356773,-0.0850109308958054,-0.241277903318405,0.330315117855385
11.791013453,-0.199347868561745,-0.0766494125127792,-0.154919162392616,0.263845886864083
11.801013453,-0.1812993735075,-0.071234755218029,-0.0967728495597839,0.21750594841775
11.811013453,-0.164744541049004,-0.0698709785938263,-0.0690863505005837,0.191821899898305
11.821013453,-0.142608970403671,-0.0692311376333237,-0.0638186112046242,0.170889098522072
11.831013453,-0.0903148651123047,-0.0649886280298233,-0.0792311131954193,0.136593799023374
11.841013453,0.0108048226684332,-0.0559755638241768,-0.122475951910019,0.135093918199881
11.851013453,0.160853356122971,-0.0418214462697506,-0.186419129371643,0.249749729408859
11.861013453,0.332153826951981,-0.0226976871490479,-0.238401308655739,0.409483252074528
11.871013453,0.440887659788132,-0.00868090707808733,-0.246177285909653,0.505035189664044
11.881013453,0.404240280389786,-0.0153582002967596,-0.212816372513771,0.457096146358606
11.891013453,0.23509992659092,-0.045529518276453,-0.173447802662849,0.295684042122859
11.901013453,0.0365334823727608,-0.0832702741026878,-0.152821868658066,0.177829011760063
11.911013453,-0.117058105766773,-0.112774074077606,-0.136304304003716,0.212130750245465
11.921013453,-0.27120116353035,-0.137753248214722,-0.0850769355893135,0.315854576448071
11.931013453,-0.49600088596344,-0.167532786726952,0.0269348733127117,0.524222854237954
11.941013453,-0.773151159286499,-0.19787123799324,0.191664516925812,0.820762468062131
11.951013453,-1.023921251297,-0.215082943439484,0.385706305503845,1.11509854072258
11.961013453,-1.19261229038239,-0.210050493478775,0.599539399147034,1.35125599947285
11.971013453,-1.27925205230713,-0.184491097927094,0.835026860237122,1.53876334628292
11.981013453,-1.29373729228973,-0.145237520337105,1.07734811306,1.68983107898061
11.991013453,-1.21993148326874,-0.0986912921071053,1.28157186508179,1.77211716327596
12.001013453,-1.05634844303131,-0.0549886599183083,1.38988733291626,1.7466203319598
12.011013453,-0.83967387676239,-0.028264582157135,1.35645616054535,1.59556398223422
12.021013453,-0.604847609996796,-0.026123633608222,1.17208647727966,1.31920801459572
12.031013453,-0.36211222410202,-0.0426944345235825,0.885335445404053,0.957479466344941
12.041013453,-0.105129048228264,-0.0609484016895294,0.597004532814026,0.609246449846351
12.051013453,0.184127002954483,-0.0645936578512192,0.399879604578018,0.444948077879962
12.061013453,0.528713464736939,-0.0491438992321491,0.315645843744278,0.617725949996367
12.071013453,0.922750413417816,-0.0221547316759825,0.299308180809021,0.970332182655811
12.081013453,1.29885280132294,0.00242946157231927,0.282781034708023,1.32928161627945
12.091013453,1.57738387584686,0.0116671649739146,0.195948541164398,1.5895508313057
12.101013453,1.74562573432922,-0.00169380963779986,-0.0360725037753582,1.74599922648097
12.111013453,1.88343214988709,-0.0369795560836792,-0.483204156160355,1.94478029795838
12.121013453,2.10557460784912,-0.0810675770044327,-1.16665160655975,2.40854569239382
12.131013453,2.43332099914551,-0.11040423065424,-2.01344990730286,3.16025643077373
12.141013453,2.73452305793762,-0.109902799129486,-2.87377309799194,3.96840859771159
12.151013453,2.83305883407593,-0.0883676782250404,-3.58147478103638,4.56738358484265
12.161013453,2.67949509620667,-0.0645191371440888,-4.02244853973389,4.83362689338561
12.171013453,2.35698437690735,-0.0426113940775394,-4.13841772079468,4.76274000084804
12.181013453,1.97388541698456,-0.0106493886560202,-3.90392661094666,4.37458341245432
12.191013453,1.62654376029968,0.0481889359652996,-3.37575507164001,3.74749103820444
12.201013453,1.40533924102783,0.151089727878571,-2.7050564289093,3.05207089888598
12.211013453,1.36238718032837,0.301964402198792,-2.08096480369568,2.50553304578857
12.221013453,1.47105181217194,0.481162220239639,-1.63287401199341,2.24984178450924
12.231013453,1.65625298023224,0.657846450805664,-1.39786982536316,2.2649450183231
12.241013453,1.83127224445343,0.796841084957123,-1.37258517742157,2.42332495081831
12.251013453,1.89746701717377,0.856057345867157,-1.53290402889252,2.58515183741117
12.261013453,1.77155661582947,0.79758632183075,-1.83301496505737,2.67104860419741
12.271013453,1.45836365222931,0.627084314823151,-2.18604397773743,2.70163793885171
12.281013453,1.06638252735138,0.407774806022644,-2.48684787750244,2.73639623463151
12.291013453,0.700818777084351,0.207493275403976,-2.65372896194458,2.752540248773
12.301013453,0.386273771524429,0.0521471910178661,-2.63796854019165,2.66660922805341
12.311013453,0.0998219177126885,-0.0647501572966576,-2.42484664916992,2.42776404745527
12.321013453,-0.160358309745789,-0.140208259224892,-2.02205204963684,2.03324067313733
12.331013453,-0.36572340130806,-0.156071081757545,-1.4732129573822,1.52593191415086
12.341013453,-0.503241360187531,-0.11253560334444,-0.860964179039002,1.00358131021447
12.351013453,-0.597253680229187,-0.0415222905576229,-0.274140566587448,0.658474835820889
12.361013453,-0.696331381797791,0.00993077084422112,0.226827830076218,0.732411686132237
12.371013453,-0.835037469863892,0.0134929874911904,0.622061431407929,1.04135971750083
12.381013453,-1.00873970985413,-0.0247513391077518,0.91437292098999,1.36170711596289
12.391013453,-1.1837397813797,-0.078960694372654,1.10528790950775,1.62146107698603
12.401013453,-1.32343697547913,-0.125371724367142,1.18943977355957,1.78380785743913
12.411013453,-1.39695966243744,-0.146053016185761,1.16387927532196,1.82412794220643
12.421013453,-1.36626553535461,-0.120319038629532,1.03135859966278,1.71605907394033
12.431013453,-1.21659708023071,-0.0420386306941509,0.808923423290253,1.46158571655725
12.441013453,-1.00479102134705,0.0541720986366272,0.525331139564514,1.13512660925841
12.451013453,-0.827754437923431,0.110773660242558,0.20169535279274,0.859144474837415
12.461013453,-0.738571226596832,0.0997410044074059,-0.138071566820145,0.757957440943169
12.471013453,-0.718959867954254,0.041461605578661,-0.453511923551559,0.851055474848376
12.481013453,-0.728576600551605,-0.02665807120502,-0.692696809768677,1.00566564319132
12.491013453,-0.735498785972595,-0.0730573832988739,-0.811289012432098,1.09749064101462
12.501013453,-0.704369306564331,-0.0676256939768791,-0.786781489849091,1.0581750645734
12.511013453,-0.60939884185791,0.0121547607704997,-0.610687017440796,0.862817083707715
12.521013453,-0.441547721624374,0.166352123022079,-0.320034205913544,0.570139730469945
12.531013453,-0.221153408288956,0.359280318021774,-0.00507610570639372,0.421920542003813
12.541013453,-0.0352293215692043,0.506476759910584,0.227373972535133,0.556290155237496
12.551013453,-0.0197273995727301,0.499797314405441,0.291118055582047,0.578736769236814
12.561013453,-0.233614772558212,0.29821589589119,0.164286762475967,0.412914909932355
12.571013453,-0.55587512254715,-0.0115532502532005,-0.109205469489098,0.566618446597493
12.581013453,-0.784867286682129,-0.280850887298584,-0.433925062417984,0.939779143413292
12.591013453,-0.832275867462158,-0.414156138896942,-0.666733920574188,1.14400286179281
12.601013453,-0.955934584140778,-0.45327240228653,-0.423851639032364,1.1397004043789
12.611013453,-1.54774594306946,-0.420498073101044,0.94685024023056,1.86248798954364
12.621013453,-2.54204630851746,-0.194253668189049,3.58327293395996,4.39767880153862
12.631013453,-3.26042699813843,0.226439237594605,6.28197336196899,7.0813027232989
12.641013453,-3.05340528488159,0.590321898460388,7.15465497970581,7.8013365301193
12.651013453,-2.03920936584473,0.661421477794647,5.59823894500732,5.99467534520708
12.661013453,-0.787401080131531,0.470118939876556,2.77264595031738,2.92037289475751
12.671013453,0.215551376342773,0.166479870676994,-0.0648853629827499,0.279978666175293
12.681013453,0.664177775382996,-0.191774159669876,-2.34928941726685,2.4488916292298
12.691013453,0.587587952613831,-0.529443800449371,-3.70062589645386,3.78420432394924
12.701013453,0.3642957508564,-0.666941523551941,-3.87970542907715,3.95343352117378
12.711013453,0.326069533824921,-0.492788940668106,-3.10402703285217,3.1597699444122
12.721013453,0.430093497037888,-0.131303772330284,-1.89346301555634,1.94613033687421
12.731013453,0.452274829149246,0.195355549454689,-0.681460797786713,0.840895433870839
12.741013453,0.321012586355209,0.39707538485527,0.357135117053986,0.623107882865869
12.751013453,0.0930307060480118,0.505062937736511,1.23584115505219,1.33829990804137
12.761013453,-0.192609891295433,0.563522279262543,2.03106832504272,2.11657611968999
12.771013453,-0.515069305896759,0.577276051044464,2.6952908039093,2.80412848254578
12.781013453,-0.793747305870056,0.515731513500214,2.93945908546448,3.08811163896528
12.791013453,-0.921132206916809,0.371819406747818,2.54947400093079,2.73615640913961
12.801013453,-0.884561479091644,0.193551018834114,1.7370810508728,1.95891847315959
12.811013453,-0.756958305835724,0.049049150198698,0.935522675514221,1.20440623226144
12.821013453,-0.611443996429443,-0.0158841218799353,0.458288878202438,0.764293635968242
12.831013453,-0.472687870264053,0.00515914615243673,0.371446788311005,0.601193110431539
12.841013453,-0.345578670501709,0.094143234193325,0.614045917987824,0.710872671754666
12.851013453,-0.235660970211029,0.216677740216255,1.05675196647644,1.10417845235172
12.861013453,-0.141490057110786,0.326965928077698,1.49412846565247,1.53601628450284
12.871013453,-0.0576970539987087,0.391320049762726,1.74849593639374,1.79267910429386
12.881013453,0.0112232184037566,0.396123617887497,1.73733448982239,1.78195707322203
12.891013453,0.044425506144762,0.344852596521378,1.48297655582428,1.52319283219433
12.901013453,0.0315116718411446,0.259112417697907,1.09252214431763,1.12327061133632
12.911013453,-0.0116118043661118,0.172638699412346,0.716678440570831,0.737269924596455
12.921013453,-0.0563290156424046,0.114293292164803,0.483515024185181,0.500022692734947
12.931013453,-0.086803749203682,0.0965088233351708,0.454006969928741,0.472198234432566
12.941013453,-0.107327483594418,0.116303287446499,0.620941460132599,0.640791651254272
12.951013453,-0.128821089863777,0.160200744867325,0.920390129089356,0.943067941123468
12.961013453,-0.157412514090538,0.208124592900276,1.24800550937653,1.27499501849865
12.971013453,-0.188335448503494,0.241071373224258,1.49431478977203,1.52530729332901
12.981013453,-0.209180697798729,0.248336330056191,1.58358526229858,1.61653016678521
12.991013453,-0.210940510034561,0.227483630180359,1.48870849609375,1.52068987210259
13.001013453,-0.194081202149391,0.182615250349045,1.22987508773804,1.25841510406004
13.011013453,-0.160866126418114,0.122698463499546,0.857262492179871,0.880813149352552
13.021013453,-0.113913223147392,0.0585423596203327,0.434205055236816,0.452700188061537
13.031013453,-0.0637206733226776,-0.000520598900038749,0.0300861466675997,0.070468230098495
13.041013453,-0.0240433663129807,-0.0486105270683765,-0.293697655200958,0.298662651625654
13.051013453,-0.000755879853386432,-0.0835577249526978,-0.506306409835815,0.513155576209064
13.061013453,0.0170222017914057,-0.106327809393406,-0.621704757213593,0.630961301147891
13.071013453,0.0492801703512669,-0.119054265320301,-0.67868959903717,0.690812583210556
13.081013453,0.104027166962624,-0.123379819095135,-0.704676985740662,0.722920386666998
13.091013453,0.167654141783714,-0.122428044676781,-0.715451955795288,0.74496176977877
13.101013453,0.216613873839378,-0.122472763061523,-0.734990954399109,0.775972197362856
13.111013453,0.232797145843506,-0.130555346608162,-0.793878257274628,0.837545161178942
13.121013453,0.2056844830513,-0.151527285575867,-0.907173991203308,0.942460224708614
13.131013453,0.138223811984062,-0.184149354696274,-1.05226027965546,1.07715760368436
13.141013453,0.0548917800188065,-0.218325778841972,-1.17630553245544,1.19765352206132
13.151013453,-0.00734161585569382,-0.238508835434914,-1.22595620155334,1.24896315879653
13.161013453,-0.0292035769671202,-0.235050946474075,-1.17758095264435,1.20116555743861
13.171013453,-0.0275512877851725,-0.213976800441742,-1.05404567718506,1.07589843116273
13.181013453,-0.0303693357855082,-0.189130708575249,-0.901883900165558,0.922001784629545
13.191013453,-0.0465196147561073,-0.168446227908134,-0.754327595233917,0.77430506080286
13.201013453,-0.0630329251289368,-0.14877738058567,-0.611623883247376,0.632607013226097
13.211013453,-0.0665003880858421,-0.122817695140839,-0.454276323318481,0.475261470964177
13.221013453,-0.0485264211893082,-0.0811974629759789,-0.278881341218948,0.294487086350585
13.231013453,-0.0236718133091927,-0.0401265732944012,-0.102087423205376,0.112215589854573
13.241013453,0.00252101896330714,-0.012368748895824,0.0474799014627934,0.0491292431122022
13.251013453,0.0379185527563095,0.00830190256237984,0.144346430897713,0.149474514022279
13.261013453,0.0670731589198113,0.0150984339416027,0.174177065491676,0.187254963881503
13.271013453,0.0588234215974808,0.0107856597751379,0.128708243370056,0.141923702377811
13.281013453,0.045136671513319,-0.0128765730187297,0.000224634713958949,0.0469379985594045
13.291013453,0.0607493184506893,-0.0516691766679287,-0.181939214468002,0.19865060098323
13.301013453,0.0925803780555725,-0.0803883522748947,-0.342346489429474,0.363640663852477
13.311013453,0.139620587229729,-0.0882771834731102,-0.413928300142288,0.445671860407412
13.321013453,0.179916441440582,-0.0747980326414108,-0.370469480752945,0.418583692655393
13.331013453,0.195241630077362,-0.049811415374279,-0.241045817732811,0.314171223162361
13.341013453,0.193516954779625,-0.0226700063794851,-0.0786700546741486,0.210123103153506
13.351013453,0.19241826236248,0.00427444744855166,0.0880248695611954,0.2116398739672
13.361013453,0.181340888142586,0.0302937477827072,0.273515641689301,0.329564917908102
13.371013453,0.133755594491959,0.0518778413534164,0.496739745140076,0.517041820245921
13.381013453,0.0553240142762661,0.0659159123897553,0.733364224433899,0.738396058860926
13.391013453,-0.0278110541403294,0.0709941536188126,0.936219990253449,0.93931969782956
13.401013453,-0.121095143258572,0.0638037100434303,1.08554244041443,1.09413771394511
13.411013453,-0.25582167506218,0.0416606888175011,1.1967089176178,1.22445603266525
13.421013453,-0.441192150115967,0.00679546594619751,1.28116202354431,1.35501764647311
13.431013453,-0.650663495063782,-0.0346246212720871,1.32789778709412,1.47914650429777
13.441013453,-0.858132302761078,-0.0770358666777611,1.32850134372711,1.58342710412623
13.451013453,-1.04756426811218,-0.115713492035866,1.30133545398712,1.6745908371505
13.461013453,-1.19312119483948,-0.142864480614662,1.29447615146637,1.76624374085562
13.471013453,-1.26388537883759,-0.149509832262993,1.36232972145081,1.8643233922072
13.481013453,-1.22609460353851,-0.133728981018066,1.51003181934357,1.94971472595876
13.491013453,-1.07225811481476,-0.107195474207401,1.66894114017487,1.98660334839264
13.501013453,-0.830204129219055,-0.0886689648032188,1.73857891559601,1.92866734489041
13.511013453,-0.536085963249207,-0.09105584025383,1.65456235408783,1.74162450304359
13.521013453,-0.211292892694473,-0.115255706012249,1.42291820049286,1.44313019841088
13.531013453,0.127022936940193,-0.154655143618584,1.08198976516724,1.1003430791727
13.541013453,0.428312391042709,-0.201052322983742,0.670318484306335,0.820487910514606
13.551013453,0.642475485801697,-0.248628035187721,0.209641680121422,0.720097412703008
13.561013453,0.767581045627594,-0.297922044992447,-0.319690316915512,0.883255402037696
13.571013453,0.905799567699432,-0.353134274482727,-1.00175154209137,1.39595230031021
13.581013453,1.22854959964752,-0.407808870077133,-1.92371952533722,2.31869338323792
13.591013453,1.78549146652222,-0.432632625102997,-3.01918745040894,3.53421046713887
13.601013453,2.39979934692383,-0.397977113723755,-4.03653478622437,4.71285855600858
13.611013453,2.76498293876648,-0.322217732667923,-4.70338153839111,5.46541423998161
13.621013453,2.660236120224,-0.275562912225723,-4.89080142974854,5.57429186167795
13.631013453,2.12586951255798,-0.306536942720413,-4.61168479919434,5.08732963044425
13.641013453,1.43687748908997,-0.377920746803284,-3.96350908279419,4.23282946253565
13.651013453,0.930578589439392,-0.389796584844589,-3.12793731689453,3.28662589095578
13.661013453,0.803289473056793,-0.273637026548386,-2.34121227264404,2.49026627198804
13.671013453,1.00333571434021,-0.0581814534962177,-1.80743539333344,2.06806439413184
13.681013453,1.35660624504089,0.177417770028114,-1.64520335197449,2.13975504171711
13.691013453,1.69333374500275,0.361808806657791,-1.86832094192505,2.54733349339576
13.701013453,1.86830925941467,0.438428401947022,-2.38177418708801,3.0587002518598
13.711013453,1.77165877819061,0.357460886240006,-3.02465415000916,3.52350476637949
13.721013453,1.38264799118042,0.101455040276051,-3.61201333999634,3.86893382742897
13.731013453,0.830259501934052,-0.263415604829788,-3.99214959144592,4.08607109359363
13.741013453,0.31169930100441,-0.606687247753143,-4.08378791809082,4.14035622027592
13.751013453,-0.0461597703397274,-0.81426465511322,-3.85936808586121,3.94460133285082
13.761013453,-0.231668651103973,-0.846918642520905,-3.34270715713501,3.456100792702
13.771013453,-0.298293590545654,-0.732437968254089,-2.60560297966003,2.72297839343504
13.781013453,-0.307043701410294,-0.537402868270874,-1.77599823474884,1.88075713669588
13.791013453,-0.312978953123093,-0.342908620834351,-0.988289475440979,1.09190578101224
13.801013453,-0.369144022464752,-0.219800278544426,-0.316287815570831,0.533495505180909
13.811013453,-0.509394884109497,-0.203490301966667,0.220745652914047,0.591286812157909
13.821013453,-0.726263165473938,-0.276967138051987,0.639539301395416,1.00656817906899
13.831013453,-0.969539403915405,-0.385015368461609,0.96269816160202,1.41951796045284
13.841013453,-1.16782581806183,-0.465317487716675,1.196120262146,1.73523519651457
13.851013453,-1.26312208175659,-0.47888395190239,1.32683312892914,1.89348709655879
13.861013453,-1.22900950908661,-0.416089504957199,1.34349012374878,1.86776887279217
13.871013453,-1.07201111316681,-0.28571617603302,1.26270794868469,1.68085481933199
13.881013453,-0.82899683713913,-0.113290414214134,1.11838591098785,1.3967310119832
13.891013453,-0.561941266059876,0.0599700137972832,0.945060610771179,1.10114211030503
13.901013453,-0.349520951509476,0.18575693666935,0.781268894672394,0.875814832511698
13.911013453,-0.269767135381699,0.252879053354263,0.658774852752686,0.755451143077247
13.921013453,-0.356971174478531,0.327897489070892,0.574819982051849,0.75190637350249
13.931013453,-0.558405697345734,0.501531600952148,0.500933289527893,0.902377432197324
13.941013453,-0.762405931949616,0.797725737094879,0.423046767711639,1.18177735820534
13.951013453,-0.881111025810242,1.14765977859497,0.360012799501419,1.49100262340946
13.961013453,-0.905885756015778,1.46855318546295,0.348412692546845,1.76030362887015
13.971013453,-0.883228540420532,1.74928164482117,0.42516216635704,2.00520367923636
13.981013453,-0.854003667831421,2.00853657722473,0.590415596961975,2.261002437826
13.991013453,-0.834170877933502,2.24005198478699,0.770669519901276,2.51149466594005
14.001013453,-0.852206587791443,2.41083931922913,0.854257047176361,2.69595203853236
14.011013453,-0.953780889511108,2.49203991889954,0.796851694583893,2.78476813500633
14.021013453,-1.1789585351944,2.49992251396179,0.720502555370331,2.85634026961354
14.031013453,-1.80366444587708,2.39565563201904,1.01725137233734,3.16657096795064
14.041013453,-3.13996315002441,2.17731189727783,2.19562554359436,4.40690676202967
14.051013453,-4.5988826751709,2.12353682518005,4.25508689880371,6.61550413984103
14.061013453,-4.81856870651245,2.44818520545959,6.30467224121094,8.30428246441004
14.071013453,-3.37406015396118,2.9537250995636,7.11094570159912,8.40680216595059
14.081013453,-1.41995322704315,3.3529999256134,6.16384887695313,7.15904383602098
14.091013453,-0.114908635616302,3.5778284072876,3.84160590171814,5.2509043040841
14.101013453,0.409602761268616,3.68874144554138,0.634945452213287,3.76533446075909
14.111013453,0.453784465789795,3.66734910011292,-3.00585412979126,4.76345765312072
14.121013453,0.1662318110466,3.44637870788574,-6.29444646835327,7.1781066832513
14.131013453,-0.274139523506165,3.11496067047119,-7.68769407272339,8.29932362380916
