Time (s);Gyroscope x (rad/s);Gyroscope y (rad/s);Gyroscope z (rad/s)
0,076187261;-0,001114657;-0,003433398;-0,003485564
0,086187261;-0,000612156;-0,003685713;0,002716909
0,096187261;0,000610027;-0,001282866;-0,002177147
0,106187261;-0,001566055;-0,000673904;0,002187793
0,116187261;-0,159555584;1,624398589;-0,466670632
0,126187261;-0,188771933;2,073546648;-0,590937257
0,136187261;-0,185637698;2,197719574;-0,620645463
0,146187261;-0,174467713;2,109123945;-0,591426969
0,156187261;-0,173048571;1,931674361;-0,539518297
0,166187261;-0,181806132;1,729159236;-0,475944519
0,176187261;-0,188552633;1,53984642;-0,397451192
0,186187261;-0,172266081;1,39099884;-0,306258023
0,196187261;-0,119495019;1,282326698;-0,226571247
0,206187261;-0,043871906;1,1744169;-0,199575692
0,216187261;0,011018812;1,02250421;-0,246952325
0,226187261;0,008578704;0,828335702;-0,342943758
0,236187261;-0,039434571;0,648065805;-0,427097648
0,246187261;-0,089137398;0,543194413;-0,441479594
0,256187261;-0,106832437;0,528107703;-0,3709113
0,266187261;-0,093335189;0,564549625;-0,249231681
0,276187261;-0,062035378;0,596606374;-0,137755379
0,286187261;-0,01604701;0,584495246;-0,092219472
0,296187261;0,041724566;0,518053412;-0,130391404
0,306187261;0,095295154;0,414822608;-0,2256248
0,316187261;0,118839212;0,314169198;-0,318419158
0,326187261;0,10176485;0,26037398;-0,347635537
0,336187261;0,060734414;0,274052233;-0,286001503
0,346187261;0,022328265;0,337310851;-0,155534521
0,356187261;-0,007050975;0,406201303;-0,013701653
0,366187261;-0,041111346;0,43719238;0,07885211
0,376187261;-0,071402967;0,412817925;0,085007735
0,386187261;-0,057469223;0,35218358;0,012199474
0,396187261;0,031631973;0,292306185;-0,094416842
0,406187261;0,18795751;0,259590417;-0,187293187
0,416187261;0,370732456;0,243837252;-0,259415835
0,426187261;0,514532745;0,202791914;-0,345337003
0,436187261;0,549953699;0,108565636;-0,465385646
0,446187261;0,460834384;-0,020156441;-0,595128655
0,456187261;0,307117164;-0,130721435;-0,685239136
0,466187261;0,167287916;-0,17546846;-0,69766748
0,476187261;0,072863623;-0,137223065;-0,618783474
0,486187261;0,029212095;-0,027256388;-0,460603356
0,496187261;0,056481257;0,11972072;-0,267894447
0,506187261;0,166285053;0,253543377;-0,110370167
0,516187261;0,32584703;0,334167033;-0,04164046
0,526187261;0,464566946;0,35291177;-0,056073509
0,536187261;0,530553102;0,3321549;-0,097610705
0,546187261;0,524898946;0,311128646;-0,102263086
0,556187261;0,472597361;0,324062705;-0,03899914
0,566187261;0,394719392;0,378095359;0,076699443
0,576187261;0,314575881;0,444878936;0,193574443
0,586187261;0,260609269;0,472543061;0,243656263
0,596187261;0,245174408;0,415451795;0,175092638
0,606187261;0,247080088;0,272643715;-0,005376328
0,616187261;0,234517574;0,094519049;-0,227500662
0,626187261;0,191657051;-0,046536647;-0,39472577
0,636187261;0,119410917;-0,101644546;-0,441728711
0,646187261;0,030544998;-0,077374414;-0,377420396
0,656187261;-0,059326984;-0,022908483;-0,269321054
0,666187261;-0,136720568;0,009164245;-0,195083007
0,676187261;-0,19343923;-9,68804E-05;-0,188932702
0,686187261;-0,225218117;-0,031366885;-0,230739236
0,696187261;-0,227727428;-0,052834935;-0,279586107
0,706187261;-0,200454012;-0,047138158;-0,305632025
0,716187261;-0,152867645;-0,021655425;-0,302384943
0,726187261;-0,103099883;0,001979128;-0,280423969
0,736187261;-0,064340279;0,010288483;-0,254840106
0,746187261;-0,03251135;0,0092047;-0,234065115
0,756187261;0,004795046;0,01676137;-0,215372518
0,766187261;0,051328499;0,045823351;-0,191901922
0,776187261;0,095009834;0,090288252;-0,164580584
0,786187261;0,118966967;0,126846224;-0,145129994
0,796187261;0,11794813;0,130539387;-0,148933873
0,806187261;0,098433651;0,093759976;-0,182047799
0,816187261;0,064878978;0,025531704;-0,239909872
0,826187261;0,012463501;-0,056224685;-0,308713049
0,836187261;-0,058881976;-0,129229903;-0,36838603
0,846187261;-0,131349564;-0,170902297;-0,398159176
0,856187261;-0,179670513;-0,159833446;-0,376630425
0,866187261;-0,180409357;-0,087072037;-0,299856454
0,876187261;-0,122739978;0,031596843;-0,19497335
0,886187261;-0,025244256;0,148537844;-0,113577865
0,896187261;0,068984151;0,200758487;-0,105788045
0,906187261;0,120313711;0,1606085;-0,177434802
0,916187261;0,14072673;0,06609264;-0,285656571
0,926187261;0,165155485;-0,005069718;-0,360745251
0,936187261;0,182146817;0,000614285;-0,344354361
0,946187261;0,147237942;0,077387191;-0,226210341
0,956187261;0,047641721;0,185217172;-0,045524195
0,966187261;-0,072123714;0,271113873;0,116573706
0,976187261;-0,176231787;0,276822358;0,173349857
0,986187261;-0,268336266;0,180704251;0,096737713
0,996187261;-0,356568754;0,036502607;-0,047223326
1,006187261;-0,408780873;-0,040945265;-0,131556094
1,016187261;-0,376011878;0,040580101;-0,059332307
1,026187261;-0,292015553;0,251709044;0,153103992
1,036187261;-0,257543176;0,466851622;0,393035144
1,046187261;-0,326882899;0,582549155;0,547674358
1,056187261;-0,451153785;0,597078025;0,586462677
1,066187261;-0,550961852;0,576599002;0,560220897
1,076187261;-0,614993393;0,573052704;0,537344337
1,086187261;-0,670823097;0,614149153;0,5698663
1,096187261;-0,722588122;0,717936814;0,682481766
1,106187261;-0,758191109;0,872693062;0,852355659
1,116187261;-0,768438101;1,030434608;1,013728499
1,126187261;-0,747549176;1,136324763;1,097229838
1,136187261;-0,690412104;1,156521678;1,066871166
1,146187261;-0,599880099;1,096158862;0,938321531
1,156187261;-0,494870275;0,998164892;0,766303539
1,166187261;-0,368893832;0,927095115;0,619036853
1,176187261;-0,175852776;0,926724672;0,541390955
1,186187261;0,095855147;0,980731726;0,525647342
1,196187261;0,38807404;1,032265663;0,522397041
1,206187261;0,594237566;1,019005895;0,466685534
1,216187261;0,608790934;0,898467541;0,305207253
1,226187261;0,393200159;0,65359652;0,000180985
1,236187261;0,020543963;0,281260759;-0,481644511
1,246187261;-0,334887773;-0,220582768;-1,174197555
1,256187261;-0,497721314;-0,847943842;-2,098783493
1,266187261;-0,40511325;-1,537802339;-3,203466654
1,276187261;-0,105572991;-2,128611803;-4,302407265
1,286187261;0,28289175;-2,404047012;-5,066604137
1,296187261;0,582336187;-2,221961021;-5,136703968
1,306187261;0,611880481;-1,64042747;-4,375180244
1,316187261;0,304335326;-0,894152582;-3,025864601
1,326187261;-0,20664157;-0,231329039;-1,573855758
1,336187261;-0,671445906;0,205439627;-0,453899443
1,346187261;-0,882852733;0,39771843;0,132845342
1,356187261;-0,772705078;0,422827482;0,243402883
1,366187261;-0,430253178;0,389108837;0,086640865
1,376187261;-0,035483766;0,364204198;-0,136788696
1,386187261;0,251500398;0,329406053;-0,354291528
1,396187261;0,381767213;0,216454178;-0,622183859
1,406187261;0,396043777;-0,014484148;-1,012229562
1,416187261;0,349613577;-0,337966651;-1,517602324
1,426187261;0,275240332;-0,672808647;-2,03237772
1,436187261;0,177834034;-0,926659703;-2,395241499
1,446187261;0,057897203;-1,03510499;-2,474308729
1,456187261;-0,06425298;-0,97997582;-2,243980408
1,466187261;-0,160923615;-0,792789102;-1,790138483
1,476187261;-0,236542478;-0,544233501;-1,228949904
1,486187261;-0,313188702;-0,317773998;-0,660156727
1,496187261;-0,398632914;-0,156001881;-0,136580035
1,506187261;-0,490949273;-0,046260912;0,341151983
1,516187261;-0,568930507;0,02925255;0,749288797
1,526187261;-0,595836639;0,051111318;1,002775788
1,536187261;-0,542271376;-0,015753174;1,013127089
1,546187261;-0,420151025;-0,153393567;0,813973963
1,556187261;-0,277139604;-0,293027997;0,55651921
1,566187261;-0,155962497;-0,383771896;0,372915983
1,576187261;-0,084242277;-0,425567806;0,30540207
1,586187261;-0,061561622;-0,450936615;0,312652141
1,596187261;-0,054247685;-0,493315935;0,317855984
1,606187261;-0,023830442;-0,564926505;0,272973746
1,616187261;0,037525706;-0,643699825;0,201791167
1,626187261;0,090639576;-0,692605257;0,190701023
1,636187261;0,068909623;-0,699413478;0,323241889
1,646187261;-0,054777864;-0,684011638;0,594269514
1,656187261;-0,20590806;-0,66019398;0,899930298
1,666187261;-0,244567588;-0,61642319;1,11058867
1,676187261;-0,108480468;-0,549611926;1,165048242
1,686187261;0,133812025;-0,472301394;1,110010624
1,696187261;0,376418561;-0,387305379;1,048595905
1,706187261;0,56110239;-0,288721621;1,054564118
1,716187261;0,678404272;-0,19015488;1,112056851
1,726187261;0,718377531;-0,127665982;1,154155016
1,736187261;0,672934294;-0,107903443;1,16848588
1,746187261;0,559285045;-0,055248428;1,27656281
1,756187261;0,423057437;0,115652807;1,589231014
1,766187261;0,316384673;0,37530604;1,996401072
1,776187261;0,240415558;0,594959378;2,25027442
1,786187261;0,018504152;0,71940279;2,378946543
1,796187261;-0,548373759;0,85072571;2,698819876
1,806187261;-1,15356946;1,056315422;3,125520468
1,816187261;-1,128499866;1,097043514;2,88299489
1,826187261;-0,384197742;0,574036419;1,29613483
1,836187261;0,338537276;-0,489206493;-1,224101663
1,846187261;0,415252686;-1,536101103;-3,417826653
1,856187261;0,044848159;-1,878876686;-3,979694605
1,866187261;-0,290446281;-1,251877546;-2,584014654
1,876187261;-0,373203427;-0,028643588;-0,199733257
1,886187261;-0,140424371;1,128212452;1,828704357
1,896187261;0,289251804;1,696739435;2,647300959
1,906187261;0,642702281;1,654227018;2,408586502
1,916187261;0,810499072;1,341024518;1,790081024
1,926187261;0,988172352;1,085953355;1,269286156
1,936187261;1,361244798;0,992443621;0,94706738
1,946187261;1,770252466;0,942250013;0,703292966
1,956187261;1,913186193;0,834184706;0,489963442
1,966187261;1,728230834;0,717636585;0,399118394
1,976187261;1,384150147;0,691994131;0,514893651
1,986187261;1,050109744;0,760053158;0,766312063
1,996187261;0,781286955;0,821280479;0,963739336
2,006187261;0,587581575;0,767521441;0,936683118
2,016187261;0,485442013;0,578696251;0,663651824
2,026187261;0,461161226;0,330254555;0,275904655
2,036187261;0,478008837;0,141030148;-0,033336431
2,046187261;0,498159945;0,097873665;-0,120209381
2,056187261;0,499258637;0,198047966;0,02158729
2,066187261;0,466770709;0,367601395;0,284002155
2,076187261;0,394360602;0,510549963;0,514475226
2,086187261;0,294544011;0,559233963;0,599059224
2,096187261;0,181091771;0,501170695;0,515821993
2,106187261;0,064042188;0,370047897;0,320981711
2,116187261;-0,029381368;0,227924392;0,112092718
2,126187261;-0,062339857;0,133142382;-0,027354334
2,136187261;-0,035145219;0,104244344;-0,07660044
2,146187261;0,0034845;0,116310745;-0,074172042
2,156187261;0,011570284;0,124637134;-0,083093554
2,166187261;-0,007602448;0,090245664;-0,158128992
2,176187261;-0,033227839;-0,001418073;-0,316238821
2,186187261;-0,055529486;-0,129452407;-0,520488203
2,196187261;-0,070997342;-0,245667338;-0,69984889
2,206187261;-0,076810166;-0,310815662;-0,802395165
2,216187261;-0,064211458;-0,324819654;-0,834033549
2,226187261;-0,024820538;-0,330518574;-0,858434618
2,236187261;-0,000104333;-0,374060452;-0,930827677
2,246187261;-0,060275562;-0,438614696;-1,007402539
2,256187261;-0,203442395;-0,425843537;-0,938517451
2,266187261;-0,328889698;-0,231958225;-0,597002387
2,276187261;-0,337765425;0,127295494;-0,040970817
2,286187261;-0,265716255;0,497955531;0,507928908
2,296187261;-0,220556155;0,723501563;0,84516412
2,306187261;-0,215198994;0,774879038;0,921265304
2,316187261;-0,17426011;0,727581203;0,819928408
2,326187261;-0,06515152;0,65244782;0,639740467
2,336187261;0,063559912;0,568083107;0,4324857
2,346187261;0,166664049;0,474272013;0,223028198
2,356187261;0,242142379;0,387493819;0,041394535
2,366187261;0,277998775;0,331730098;-0,078316607
2,376187261;0,233892635;0,31777826;-0,119604677
2,386187261;0,090776913;0,345100671;-0,088485852
2,396187261;-0,121753074;0,410896271;0,001643772
2,406187261;-0,341099828;0,501619935;0,127209246
2,416187261;-0,507221997;0,583834112;0,239790633
2,426187261;-0,586181641;0,626303911;0,285618246
2,436187261;-0,58790952;0,628952682;0,252577782
2,446187261;-0,567794561;0,625854671;0,195846334
2,456187261;-0,572232962;0,667868793;0,207059979
2,466187261;-0,595985711;0,793183029;0,348200828
2,476187261;-0,59680438;0,994076729;0,600820124
2,486187261;-0,55243957;1,209849596;0,872192681
2,496187261;-0,478353769;1,352993011;1,042676568
2,506187261;-0,371956766;1,362910986;1,035451055
2,516187261;-0,184748739;1,251865864;0,876746058
2,526187261;0,119710073;1,097978234;0,683314323
2,536187261;0,497373194;0,98451221;0,573161304
2,546187261;0,786994398;0,935523748;0,567079127
2,556187261;0,763453543;0,899742901;0,556702316
2,566187261;0,344462961;0,761034727;0,332202792
2,576187261;-0,236143246;0,375369936;-0,33397752
2,586187261;-0,524426222;-0,348099709;-1,567251921
2,596187261;-0,265592754;-1,286900282;-3,210669756
2,606187261;0,316727489;-2,112050772;-4,80266571
2,616187261;0,751646876;-2,511835575;-5,751181126
2,626187261;0,778564751;-2,356319189;-5,631899834
2,636187261;0,492917746;-1,740209937;-4,5239048
2,646187261;0,078466713;-0,923599958;-2,932397366
2,656187261;-0,35717985;-0,244186446;-1,478357196
2,666187261;-0,75205785;0,050349049;-0,59920615
2,676187261;-1,01119256;-0,046551552;-0,372861683
2,686187261;-1,035208344;-0,352080315;-0,586784184
2,696187261;-0,848465502;-0,649638236;-0,918321609
2,706187261;-0,58264178;-0,797530949;-1,10127008
2,716187261;-0,388484985;-0,769221663;-1,016663671
2,726187261;-0,347839922;-0,633600831;-0,719239891
2,736187261;-0,398150653;-0,481375158;-0,388457298
2,746187261;-0,410062671;-0,391349852;-0,227619901
2,756187261;-0,333751827;-0,432980746;-0,364508688
2,766187261;-0,200441226;-0,648514032;-0,829753757
2,776187261;-0,031869385;-1,017980576;-1,569037199
2,786187261;0,149455547;-1,448213577;-2,411394119
2,796187261;0,250612497;-1,828383923;-3,07997179
2,806187261;0,19144839;-2,064628363;-3,308804274
2,816187261;0,019567706;-2,079360485;-2,997303009
2,826187261;-0,154016376;-1,84884584;-2,246451378
2,836187261;-0,282543629;-1,438569188;-1,249460816
2,846187261;-0,379917979;-0,960432649;-0,189587444
2,856187261;-0,444592535;-0,505848646;0,785351694
2,866187261;-0,448872328;-0,134407148;1,55692184
2,876187261;-0,371265829;0,099227861;2,018614292
2,886187261;-0,2216921;0,132035166;2,077104568
2,896187261;-0,035913873;-0,062747605;1,711674929
2,906187261;0,146032795;-0,426850677;1,033943534
2,916187261;0,2995722;-0,820032716;0,275579959
2,926187261;0,429100215;-1,089057803;-0,32268405
2,936187261;0,553755462;-1,152657151;-0,618360817
2,946187261;0,672132611;-1,021203279;-0,580067515
2,956187261;0,744055092;-0,787423432;-0,28325054
2,966187261;0,729607165;-0,572495937;0,126204252
2,976187261;0,657453656;-0,441449791;0,495702803
2,986187261;0,602105141;-0,364959002;0,770903766
2,996187261;0,594200313;-0,259046406;1,043522954
3,006187261;0,602504373;-0,090724744;1,395280719
3,016187261;0,601039469;0,082654931;1,749871373
3,026187261;0,5807212;0,160292298;1,921275139
3,036187261;0,517434895;0,089226827;1,816233397
3,046187261;0,411667049;-0,081242174;1,519373775
3,056187261;0,326355904;-0,251623869;1,170317054
3,066187261;0,38354513;-0,31428206;0,875695288
3,076187261;0,567971289;-0,179030672;0,83799392
3,086187261;0,65887171;0,261327893;1,505886197
3,096187261;0,45982939;0,990864754;3,031607151
3,106187261;0,034790698;1,740948796;4,762528419
3,116187261;-0,269843787;2,168142319;5,670429707
3,126187261;-0,226457343;2,011010885;5,100323677
3,136187261;0,001974869;1,267946839;3,261264801
3,146187261;0,040574778;0,214014068;0,917228222
3,156187261;-0,261997521;-0,793470502;-1,191332579
3,166187261;-0,64611119;-1,438470244;-2,525046349
3,176187261;-0,629331708;-1,412224174;-2,816729784
3,186187261;-0,328338236;-0,922566235;-2,206798553
3,196187261;0,061470065;-0,30656144;-1,178320885
3,206187261;0,589103997;0,29989478;-0,253173977
3,216187261;0,938648403;0,677713335;0,354988843
3,226187261;0,90272069;0,849805892;0,788907528
3,236187261;0,637346148;0,958238423;1,196517348
3,246187261;0,499646157;1,06687963;1,500276685
3,256187261;0,654389679;1,083814621;1,475399733
3,266187261;0,93539387;0,905687749;1,038022041
3,276187261;1,094224453;0,58420676;0,389552772
3,286187261;1,105859637;0,296116471;-0,155219391
3,296187261;1,074349046;0,170874625;-0,406481296
3,306187261;1,041077495;0,203649998;-0,375064373
3,316187261;0,938698411;0,307848573;-0,177649856
3,326187261;0,675849199;0,381936491;0,036216225
3,336187261;0,278028578;0,372908533;0,154808447
3,346187261;-0,111674324;0,306095123;0,171088606
3,356187261;-0,327696264;0,25955528;0,165521711
3,366187261;-0,28548941;0,302768201;0,229202986
3,376187261;-0,035216548;0,434263617;0,38185665
3,386187261;0,263038725;0,587152541;0,572404385
3,396187261;0,430450141;0,695324302;0,741671443
3,406187261;0,40541029;0,75420624;0,877928853
3,416187261;0,263344288;0,806778252;1,0083884
3,426187261;0,121296354;0,878690064;1,141029358
3,436187261;0,046814512;0,939126372;1,226219177
3,446187261;0,032806251;0,9174124;1,170225501
3,456187261;0,030064855;0,757584274;0,900720239
3,466187261;-0,007454466;0,46136564;0,428012162
3,476187261;-0,082323834;0,092584632;-0,149395928
3,486187261;-0,157440186;-0,252690613;-0,695358336
3,496187261;-0,192506626;-0,493324429;-1,10272646
3,506187261;-0,159689724;-0,601577103;-1,334678292
3,516187261;-0,052697599;-0,613101602;-1,430517435
3,526187261;0,063486457;-0,596698999;-1,460166097
3,536187261;0,079802811;-0,570760608;-1,415385008
3,546187261;-0,043611072;-0,458262265;-1,171405077
3,556187261;-0,217805177;-0,165696308;-0,627997756
3,566187261;-0,316337854;0,281089365;0,119186282
3,576187261;-0,323345155;0,698198736;0,78415823
3,586187261;-0,3076846;0,889757872;1,092320919
3,596187261;-0,296540171;0,809712291;0,970111072
3,606187261;-0,24974376;0,567351699;0,56221807
3,616187261;-0,141897812;0,321063697;0,110420205
3,626187261;-0,006245058;0,176198781;-0,198516399
3,636187261;0,107808694;0,154714763;-0,305770427
3,646187261;0,167459324;0,216905579;-0,259981155
3,656187261;0,142241687;0,302354068;-0,149818569
3,666187261;0,017977165;0,369373977;-0,047977079
3,676187261;-0,167384803;0,411017656;0,011945031
3,686187261;-0,349830776;0,44090578;0,032618877
3,696187261;-0,476628006;0,47423476;0,034138087
3,706187261;-0,513239205;0,529057324;0,052095026
3,716187261;-0,448596597;0,630093992;0,13783735
3,726187261;-0,310284406;0,799258828;0,335936427
3,736187261;-0,160012305;1,04251802;0,658892989
3,746187261;-0,069688924;1,324479222;1,055316806
3,756187261;-0,074358344;1,571662664;1,414933562
3,766187261;-0,138908356;1,710885048;1,616998315
3,776187261;-0,189195663;1,702752352;1,590817213
3,786187261;-0,160480738;1,569300175;1,376149535
3,796187261;-0,022473052;1,378063679;1,096073627
3,806187261;0,223000526;1,196113825;0,86829406
3,816187261;0,518163085;1,044617414;0,722524226
3,826187261;0,688188136;0,903495729;0,59179002
3,836187261;0,526984513;0,735221982;0,356940299
3,846187261;0,027110536;0,454095334;-0,145499408
3,856187261;-0,486130804;-0,080701351;-1,093019247
3,866187261;-0,567247331;-0,946901321;-2,570653677
3,876187261;-0,108579479;-1,972754836;-4,385739326
3,886187261;0,500674546;-2,756232738;-5,953054905
3,896187261;0,758579731;-2,953989983;-6,514928341
3,906187261;0,535443962;-2,511230707;-5,727058887
3,916187261;0,053458802;-1,66800642;-4,022428513
3,926187261;-0,419909358;-0,809297144;-2,22472477
3,936187261;-0,733045876;-0,268528968;-0,984191716
3,946187261;-0,845361114;-0,149130836;-0,497611672
3,956187261;-0,799807072;-0,293252617;-0,507380605
3,966187261;-0,690121472;-0,476362914;-0,635614038
3,976187261;-0,573085725;-0,573263526;-0,685089052
3,986187261;-0,445411235;-0,585429966;-0,674664259
3,996187261;-0,31140545;-0,587917984;-0,70901531
4,006187261;-0,214253604;-0,65218693;-0,851249516
4,016187261;-0,173997149;-0,795106828;-1,093323708
4,026187261;-0,165778294;-0,978619516;-1,379180431
4,036187261;-0,14736037;-1,162134409;-1,672026396
4,046187261;-0,082074709;-1,337286592;-1,986911058
4,056187261;0,041681983;-1,500990987;-2,324720144
4,066187261;0,178554788;-1,639890909;-2,613063812
4,076187261;0,23949787;-1,742903471;-2,72790432
4,086187261;0,181804001;-1,787965655;-2,567928314
4,096187261;0,041734148;-1,739825606;-2,117993355
4,106187261;-0,119354486;-1,574879885;-1,437201142
4,116187261;-0,260985076;-1,30175817;-0,614167273
4,126187261;-0,364993066;-0,936262548;0,290003419
4,136187261;-0,414561749;-0,497334868;1,223591685
4,146187261;-0,38292554;-0,045607235;2,06734848
4,156187261;-0,24111928;0,300844431;2,609169483
4,166187261;-0,001096558;0,403946429;2,626934767
4,176187261;0,255642831;0,197114304;2,062600136
4,186187261;0,443332046;-0,241088405;1,109590054
4,196187261;0,550093174;-0,719323993;0,107783139
4,206187261;0,620152533;-1,054381013;-0,638111651
4,216187261;0,667720795;-1,154723525;-0,936048567
4,226187261;0,658292532;-1,026527405;-0,722556174
4,236187261;0,613657296;-0,712394357;-0,078556143
4,246187261;0,623811662;-0,278219134;0,779715598
4,256187261;0,721674681;0,150466934;1,581005692
4,266187261;0,803477883;0,410822809;2,112789631
4,276187261;0,723756015;0,394426614;2,270548105
4,286187261;0,484374195;0,137671262;2,06342411
4,296187261;0,21948728;-0,222094536;1,596063733
4,306187261;0,035789315;-0,55589211;1,022313595
4,316187261;-0,060650308;-0,808368742;0,464685112
4,326187261;-0,035786118;-0,930068612;0,005377393
4,336187261;0,112915672;-0,806898534;-0,088386841
4,346187261;0,091612637;-0,300812483;0,840039074
4,356187261;-0,333003402;0,579421282;2,998726368
4,366187261;-0,8280195;1,594139934;5,476842403
4,376187261;-0,788228273;2,327999115;6,868597031
4,386187261;-0,103422463;2,29728055;6,217929363
4,396187261;0,544741333;1,37660408;3,803189039
4,406187261;0,492090553;-0,043216098;0,695488214
4,416187261;-0,134178251;-1,381476879;-2,079306126
4,426187261;-0,741313696;-2,12670207;-3,670642853
4,436187261;-0,849423707;-2,028184175;-3,696615458
4,446187261;-0,345243335;-1,24316144;-2,587304354
4,456187261;0,592708826;-0,233587101;-1,243653297
4,466187261;1,505083442;0,500971615;-0,356434613
4,476187261;1,836547375;0,752244174;0,032996815
4,486187261;1,497411847;0,742359161;0,371277541
4,496187261;0,978990018;0,827675641;0,985640705
4,506187261;0,810219049;1,115379453;1,734868765
4,516187261;1,02537334;1,385198712;2,197213888
4,526187261;1,306846976;1,382332802;2,088058472
4,536187261;1,408699155;1,080587745;1,486383438
4,546187261;1,320904255;0,645104051;0,703653872
4,556187261;1,116037369;0,267129004;0,059505843
4,566187261;0,821424186;0,061488163;-0,246055916
4,576187261;0,510820389;0,047762025;-0,193252921
4,586187261;0,29557243;0,168564394;0,086534403
4,596187261;0,188189596;0,314242661;0,392804146
4,606187261;0,091957569;0,385047317;0,567539036
4,616187261;-0,040749375;0,359645486;0,573213458
4,626187261;-0,124347553;0,300431371;0,490980148
4,636187261;-0,055926591;0,297001153;0,453356504
4,646187261;0,143203035;0,390984684;0,545235276
4,656187261;0,358003855;0,553370059;0,751144409
4,666187261;0,487757534;0,720753789;0,984330118
4,676187261;0,496363938;0,835465491;1,149262071
4,686187261;0,396509022;0,853677928;1,17002964
4,696187261;0,231263027;0,745024979;0,994590938
4,706187261;0,105443105;0,507210255;0,605830252
4,716187261;0,111246347;0,17123659;0,038739372
4,726187261;0,127004847;-0,199005067;-0,592781186
4,736187261;-0,071543492;-0,509905875;-1,101355195
4,746187261;-0,46552828;-0,652484;-1,293233752
4,756187261;-0,761752248;-0,549896181;-1,087725997
4,766187261;-0,741870522;-0,238701522;-0,597511292
4,776187261;-0,519264936;0,11833778;-0,074660696
4,786187261;-0,321695;0,352432698;0,250314385
4,796187261;-0,232317001;0,413905948;0,315110326
4,806187261;-0,201593146;0,361731082;0,209145561
4,816187261;-0,160458386;0,271278888;0,041000627
4,826187261;-0,087445714;0,180019706;-0,140649006
4,836187261;0,003414235;0,091047324;-0,330475986
4,846187261;0,067197718;-0,006874248;-0,527754247
4,856187261;0,051470093;-0,116536446;-0,724311709
4,866187261;-0,051790543;-0,220915988;-0,901155651
4,876187261;-0,175275758;-0,285085946;-1,019741535
4,886187261;-0,232148796;-0,27761656;-1,04221034
4,896187261;-0,209419176;-0,2044985;-0,974797547
4,906187261;-0,144152671;-0,103891954;-0,872020245
4,916187261;-0,065128095;-0,015365653;-0,791268826
4,926187261;0,003348228;0,042464476;-0,7463153
4,936187261;0,019552801;0,069679342;-0,712237895
4,946187261;-0,046115056;0,078690283;-0,652905583
4,956187261;-0,162833557;0,100622512;-0,538039505
4,966187261;-0,273130268;0,17078732;-0,355677664
4,976187261;-0,346212119;0,298032761;-0,120335005
4,986187261;-0,380872935;0,450864226;0,122478083
4,996187261;-0,381003886;0,578827202;0,312945962
5,006187261;-0,354159504;0,64820528;0,407847196
5,016187261;-0,316187739;0,663707197;0,405800998
5,026187261;-0,258391678;0,664554656;0,349910617
5,036187261;-0,155168295;0,691938758;0,304005295
5,046187261;-0,026425986;0,760946333;0,322590351
5,056187261;0,063800514;0,876230836;0,445459157
5,066187261;0,077472359;1,057140589;0,701501191
5,076187261;0,03489184;1,312622547;1,077931523
5,086187261;-0,020816505;1,598917961;1,494134903
5,096187261;-0,047353212;1,835262418;1,835560441
5,106187261;-0,007393782;1,972901702;2,040039778
5,116187261;0,126283035;2,030043125;2,142702103
5,126187261;0,351428747;2,04309535;2,211826801
5,136187261;0,635820568;2,007620096;2,261305094
5,146187261;0,915661097;1,871486068;2,211149693
5,156187261;1,070474863;1,591738105;1,944168687
5,166187261;0,901197195;1,203302145;1,410791159
5,176187261;0,280073702;0,769786954;0,629086852
5,186187261;-0,594354689;0,262537301;-0,403916627
5,196187261;-1,186930418;-0,448508233;-1,754932642
5,206187261;-1,003140926;-1,369301915;-3,39655447
5,216187261;-0,11963129;-2,208836317;-5,030169487
5,226187261;0,818986237;-2,578810692;-6,111699581
5,236187261;1,196171284;-2,352968693;-6,184008121
5,246187261;0,942477822;-1,739479661;-5,314317703
5,256187261;0,401763976;-1,04531157;-4,021573544
5,266187261;-0,096077651;-0,523427606;-2,891605616
5,276187261;-0,406094849;-0,30485484;-2,264569044
5,286187261;-0,507651031;-0,34383589;-2,121623755
5,296187261;-0,435990423;-0,483931303;-2,224872589
5,306187261;-0,283282459;-0,583297551;-2,318437815
5,316187261;-0,131743461;-0,590831876;-2,281555176
5,326187261;-0,010695167;-0,539057314;-2,145816088
5,336187261;0,059883781;-0,494453996;-2,000392437
5,346187261;0,050777026;-0,511761546;-1,91015625
5,356187261;-0,04615232;-0,598863363;-1,875861645
5,366187261;-0,204568759;-0,719782829;-1,848756433
5,376187261;-0,357861191;-0,835549593;-1,812396526
5,386187261;-0,417033821;-0,934151411;-1,828312516
5,396187261;-0,337557822;-1,018479943;-1,947458386
5,406187261;-0,195934698;-1,100204349;-2,106271982
5,416187261;-0,139879286;-1,183283091;-2,140024662
5,426187261;-0,235852599;-1,227526546;-1,899457932
5,436187261;-0,40311709;-1,155857325;-1,364385486
5,446187261;-0,493361712;-0,913805485;-0,645611882
5,456187261;-0,444126248;-0,542190492;0,107872568
5,466187261;-0,328187048;-0,154474154;0,808713675
5,476187261;-0,249875769;0,143057182;1,417377949
5,486187261;-0,209074229;0,297561139;1,845541239
5,496187261;-0,111721165;0,289279461;1,936284184
5,506187261;0,081781939;0,100669354;1,588826418
5,516187261;0,299821347;-0,234907225;0,911893427
5,526187261;0,443466187;-0,601652682;0,203030393
5,536187261;0,458943605;-0,869387448;-0,224546343
5,546187261;0,350510001;-0,986019671;-0,235408664
5,556187261;0,229555383;-0,954369605;0,062682666
5,566187261;0,2512438;-0,798129261;0,438219726
5,576187261;0,443129748;-0,573934257;0,735911846
5,586187261;0,647328019;-0,363630354;0,982598007
5,596187261;0,684975088;-0,232346818;1,265726089
5,606187261;0,559527814;-0,179197818;1,579752684
5,616187261;0,390095741;-0,180493459;1,824013591
5,626187261;0,234540999;-0,236107051;1,907319069
5,636187261;0,058646694;-0,354911119;1,824775934
5,646187261;-0,153966337;-0,517493427;1,633375406
5,656187261;-0,23277159;-0,483293593;1,658181071
5,666187261;0,049451575;0,030589711;2,271877766
5,676187261;0,34000966;0,940409243;3,671774626
5,686187261;0,080964312;1,947682977;5,697801113
5,696187261;-0,599816203;2,80090642;7,550312042
5,706187261;-1,043455958;3,20904851;7,733561039
5,716187261;-0,846522629;2,856279373;6,724571228
5,726187261;-0,424485087;1,544143319;3,52111721
5,736187261;-0,297640979;-0,232388332;-0,294276804
5,746187261;-0,332957625;-1,345873833;-3,724695921
5,756187261;-0,216008097;-1,944788337;-5,769285679
5,766187261;0,127894863;-2,105274439;-5,725969791
5,776187261;0,576997161;-1,269340515;-4,054218769
5,786187261;1,01164937;-0,12258774;-1,927243352
5,796187261;1,36743772;0,79644078;-0,246531799
5,806187261;1,468094349;1,282039285;0,755746782
5,816187261;1,20729661;1,443793297;1,328356624
5,826187261;0,784086943;1,472203732;1,685185075
5,836187261;0,481177121;1,42414999;1,780918837
5,846187261;0,359040797;1,213458657;1,45214951
5,856187261;0,333712429;0,816429019;0,720339656
5,866187261;0,375672281;0,379422933;-0,119856991
5,876187261;0,504243195;0,106942095;-0,697829306
5,886187261;0,672054887;0,092653833;-0,814109206
5,896187261;0,744832277;0,25677982;-0,54777652
5,906187261;0,620914817;0,452082157;-0,131019533
5,916187261;0,34407863;0,567102551;0,198553666
5,926187261;0,047510773;0,561220527;0,306998998
5,936187261;-0,162877202;0,460717261;0,210226148
5,946187261;-0,240647659;0,324153215;0,007795144
5,956185623;-0,188297123;0,22220844;-0,178697452
5,966185623;-0,063538618;0,210509345;-0,246249676
5,976185623;0,041806541;0,302862942;-0,14268136
5,986185623;0,069745354;0,468912721;0,110004999
5,996185623;0,033434376;0,647144914;0,413562089
6,006185623;-0,02398907;0,770563066;0,644274712
6,016185623;-0,079127841;0,793602467;0,710766554
6,026185623;-0,12381205;0,710001111;0,585601389
6,036185623;-0,15218097;0,546920598;0,309085637
6,046185623;-0,154439032;0,349527359;-0,031103922
6,056185623;-0,122541964;0,153421253;-0,361147672
6,066185623;-0,088366613;-0,024421306;-0,647649527
6,076185623;-0,110849246;-0,165827259;-0,858765721
6,086185623;-0,205702588;-0,231374815;-0,928532362
6,096185623;-0,308158368;-0,170167714;-0,790566206
6,106185623;-0,335399836;0,016348297;-0,476366103
6,116185623;-0,27568534;0,242499024;-0,131285682
6,126185623;-0,171957344;0,399986058;0,091464654
6,136185623;-0,060548104;0,450088114;0,151428282
6,146185623;0,058299627;0,448698789;0,137588233
6,156185623;0,204743356;0,482984871;0,170937434
6,166185623;0,376719862;0,586721361;0,297908217
6,176185623;0,512101114;0,710996568;0,463415027
6,186185623;0,513380826;0,770931423;0,567066371
6,196185623;0,327052176;0,728580832;0,560506165
6,206185623;-0,002296384;0,629380703;0,495159835
6,216185623;-0,363592029;0,554003477;0,461012185
6,226185623;-0,654763341;0,547262311;0,495949805
6,236185623;-0,811897993;0,588925123;0,558606923
6,246185623;-0,819803834;0,618667424;0,572160602
6,256185623;-0,720945418;0,592339396;0,49595511
6,266185623;-0,593778729;0,522778213;0,357544988
6,276185623;-0,480341405;0,471183538;0,236210316
6,286185623;-0,359290987;0,501631677;0,225074396
6,296185623;-0,215522632;0,63346988;0,373467445
6,306185623;-0,087552175;0,832235396;0,656663656
6,316185623;-0,043456703;1,033925414;0,982746005
6,326185623;-0,102110848;1,178585887;1,239569426
6,336185623;-0,210913897;1,232598305;1,355222225
6,346185623;-0,288443744;1,191872358;1,32187736
6,356185623;-0,257328123;1,074864268;1,185846686
6,366185623;-0,076997541;0,908048034;1,008702517
6,376185623;0,232426658;0,720854938;0,836647213
6,386185623;0,466044635;0,550456166;0,682824552
6,396185623;0,341037005;0,40273279;0,484885216
6,406185623;-0,161695465;0,183337063;0,057372343
6,416185623;-0,673350513;-0,283767939;-0,851954281
6,426185623;-0,703695357;-1,072917104;-2,328376055
6,436185623;-0,163777873;-1,976273417;-4,077416897
6,446185623;0,544734895;-2,587991953;-5,435527802
6,456185623;0,941629291;-2,621725559;-5,730485916
6,466185623;0,870717168;-2,112650156;-4,82498455
6,476185623;0,46981445;-1,34426415;-3,205250978
6,486185623;-0,085865818;-0,679973543;-1,595818877
6,496185623;-0,632993996;-0,367661029;-0,545437574
6,506185623;-0,977214217;-0,402405947;-0,203412592
6,516185623;-0,98559171;-0,595561981;-0,354401171
6,526185623;-0,714475691;-0,769180119;-0,678946197
6,536185623;-0,324647188;-0,866699278;-0,998835564
6,546185623;0,050478932;-0,916536212;-1,276641607
6,556185623;0,310406834;-0,95737505;-1,501066685
6,566185623;0,383416325;-1,006095171;-1,640682936
6,576185623;0,277669787;-1,055443525;-1,670224071
6,586185623;0,08651311;-1,105616927;-1,632472634
6,596185623;-0,035120733;-1,173912287;-1,658179998
6,606185623;0,029940294;-1,284465551;-1,894067764
6,616185623;0,26155892;-1,43625474;-2,34903717
6,626185623;0,508864701;-1,597552061;-2,838032722
6,636185623;0,598159671;-1,736666918;-3,106270075
6,646185623;0,487282723;-1,795700073;-2,977147818
6,656185623;0,261682391;-1,70794034;-2,429992914
6,666185623;0,038035661;-1,457579017;-1,576444864
6,676185623;-0,10779272;-1,108827829;-0,596631944
6,686185623;-0,169455484;-0,758791566;0,34112218
6,696185623;-0,173458457;-0,460985571;1,128008008
6,706185623;-0,127904445;-0,228470534;1,679141283
6,716185623;-0,015102692;-0,079896495;1,912473917
6,726185623;0,154993698;-0,051766057;1,803107738
6,736185623;0,30588752;-0,169419289;1,425922632
6,746185623;0,362462491;-0,399803996;0,936657548
6,756185623;0,338441461;-0,648103058;0,497275233
6,766185623;0,298730105;-0,819923103;0,220928773
6,776185623;0,279980034;-0,87268883;0,16620414
6,786185623;0,280930728;-0,820678949;0,321910053
6,796185623;0,298615128;-0,696942508;0,629373252
6,806185623;0,327893227;-0,527048409;1,036341071
6,816185623;0,341025293;-0,331152022;1,521942735
6,826185623;0,315550029;-0,13190636;2,059840679
6,836185623;0,243057951;0,028853318;2,560801744
6,846185623;0,121381529;0,098911665;2,881788731
6,856185623;-0,031664979;0,047216937;2,897149086
6,866185623;-0,16635637;-0,120056078;2,559822083
6,876185623;-0,143886521;-0,303975463;1,987036705
6,886185623;0,064370088;-0,291723847;1,665465117
6,896185623;0,151596487;0,112996586;2,330819368
6,906185623;-0,158332333;0,859053195;4,051591396
6,916185623;-0,733320534;1,611008763;5,817913532
6,926185623;-1,127123237;1,979102015;6,347472191
6,936185623;-1,05617702;1,696683049;5,043362141
6,946185623;-0,697422624;0,759547472;2,275197268
6,956185623;-0,380981535;-0,522739887;-1,106280208
6,966185623;-0,259146482;-1,709560633;-4,259166718
6,976185623;-0,235978231;-2,364535809;-6,222269535
6,986185623;-0,191376001;-2,233995438;-6,201572418
6,996185623;-0,04355571;-1,401593924;-4,407963276
7,006185623;0,363432348;-0,163202971;-1,854147673
7,016185623;1,080352426;1,051673651;0,393002152
7,026185623;1,814410806;1,801042318;1,668073535
7,036185623;2,099555254;1,921248555;1,941089869
7,046185623;1,839988232;1,616104126;1,612192631
7,056185623;1,364866614;1,184856534;1,061814189
7,066185623;1,01381588;0,786351383;0,451605201
7,076185623;0,864542365;0,46149978;-0,136319205
7,086185623;0,833251059;0,253785044;-0,546595871
7,096185623;0,860726774;0,227910548;-0,613235712
7,106185623;0,902611017;0,382080227;-0,318305254
7,116185623;0,881869018;0,619646847;0,182591826
7,126185623;0,724484205;0,799687862;0,636539161
7,136185623;0,456595063;0,823305368;0,820757747
7,146185623;0,179244652;0,678545892;0,665712953
7,156185623;-0,027224449;0,432586849;0,278869629
7,166185623;-0,12894246;0,197373003;-0,130910933
7,176185623;-0,101262346;0,073468328;-0,383517444
7,186185623;0,047648109;0,100924864;-0,403836787
7,196185623;0,237762541;0,248108506;-0,215506658
7,206185623;0,359548628;0,446098983;0,101820208
7,216185623;0,362754196;0,62866205;0,445571989
7,226185623;0,2886886;0,744756699;0,704586446
7,236185623;0,215461954;0,757139266;0,777945161
7,246185623;0,240790308;0,654425859;0,604952991
7,256185623;0,403532296;0,455779582;0,206419066
7,266185623;0,540326297;0,196447849;-0,292976886
7,276185623;0,432520837;-0,058578558;-0,692851186
7,286185623;0,091238953;-0,200114399;-0,798313439
7,296185623;-0,252844989;-0,141025886;-0,544561386
7,306185623;-0,427878022;0,086409837;-0,058427382
7,316185623;-0,475914717;0,325159281;0,399981797
7,326185623;-0,468671054;0,426027715;0,596211374
7,336185623;-0,402849883;0,365417868;0,487976849
7,346185623;-0,282355189;0,223313525;0,216669232
7,356185623;-0,130031556;0,1097463;-0,026566515
7,366185623;0,043239519;0,101215504;-0,114877768
7,376185623;0,240762636;0,209765166;-0,020112792
7,386185623;0,446904898;0,387836605;0,204931796
7,396185623;0,618309677;0,557144105;0,455056697
7,406185623;0,691340446;0,645470262;0,619447768
7,416185623;0,599692702;0,610857368;0,624944389
7,426185623;0,314714283;0,464792639;0,477144361
7,436185623;-0,10319037;0,2798118;0,269426435
7,446185623;-0,515798569;0,152756929;0,130128443
7,456185623;-0,804639399;0,127978966;0,119609997
7,466185623;-0,922962308;0,171344116;0,18546842
7,476185623;-0,889398038;0,223521113;0,231148049
7,486185623;-0,7639305;0,256045252;0,203100652
7,496185623;-0,620211124;0,27994594;0,124740399
7,506185623;-0,518931746;0,32261163;0,067579918
7,516185623;-0,47882539;0,411017656;0,104244344
7,526185623;-0,468711495;0,558713377;0,268589646
7,536185623;-0,444145411;0,753926277;0,53645432
7,546185623;-0,397710979;0,959207237;0,840327561
7,556185623;-0,375155926;1,144771457;1,123235345
7,566185623;-0,445497483;1,308921933;1,373074889
7,576185623;-0,603217661;1,452165484;1,586982489
7,586185623;-0,709111094;1,555308938;1,739636183
7,596185623;-0,607182324;1,589319348;1,804596066
7,606185623;-0,308664054;1,545247316;1,790758133
7,616185623;-0,07722111;1,445017576;1,720464468
7,626185623;-0,197046161;1,280785203;1,516629219
7,636185623;-0,621072412;0,940731823;0,94468689
7,646185623;-0,964251399;0,256104857;-0,243100539
7,656185623;-0,801077187;-0,784206152;-2,020941496
7,666185623;-0,069526039;-1,876928449;-3,983309031
7,676185623;0,265542716;-1,326211452;-5,491514683
7,686185623;0,477760762;-0,74677521;-5,98985672
7,696185623;0,812094927;-1,2025069;-5,421937943
7,706185623;0,591066062;-1,024317265;-4,25658083
7,716185623;0,151319697;-0,751531899;-3,113765001
7,726185623;-0,325479716;-0,679211259;-2,386958838
7,736185623;-0,713053405;-0,832138538;-2,113954306
7,746185623;-0,899011552;-1,082060099;-2,130510092
7,756185623;-0,884529531;-1,323370934;-2,271908522
7,766185623;-0,745446563;-1,523366094;-2,455510855
7,776185623;-0,555886805;-1,669645905;-2,626676083
7,786185623;-0,384325504;-1,739730835;-2,701105595
7,796185623;-0,252056122;-1,707729459;-2,610053062
7,806185623;-0,122504696;-1,565871119;-2,375765562
7,816185623;0,058072865;-1,348548174;-2,127436638
7,826185623;0,309525341;-1,147144556;-2,042453289
7,836185623;0,59003979;-1,074066877;-2,236683607
7,846185623;0,825340927;-1,181138873;-2,677482843
7,856185623;0,962518215;-1,411716342;-3,1904006
7,866185623;1,012524486;-1,632870793;-3,563519955
7,876185623;1,020810366;-1,722450018;-3,647610903
7,886185623;1,013269663;-1,634599686;-3,401113272
7,896185623;0,988937795;-1,405185938;-2,883659124
7,906185623;0,941078901;-1,111365914;-2,212738037
7,916185623;0,876945138;-0,827009201;-1,516338587
7,926185623;0,812735856;-0,595181882;-0,885647357
7,936185623;0,752243102;-0,433717459;-0,357967645
7,946185623;0,6905303;-0,352802128;0,052351598
7,956185623;0,633324027;-0,358641565;0,314647228
7,966185623;0,604844391;-0,438215464;0,389920086
7,976185623;0,62543416;-0,553328514;0,283545434
7,986185623;0,683559179;-0,668094516;0,067420222
7,996185623;0,757138193;-0,756639957;-0,164125994
8,006185623;0,828072727;-0,800525725;-0,332583934
8,016185623;0,872793138;-0,796381176;-0,382506073
8,026185623;0,878122628;-0,742631733;-0,29074651
8,036185623;0,856850445;-0,64394784;-0,094263539
8,046185623;0,836704671;-0,533908784;0,105481431
8,056185623;0,827448905;-0,466449171;0,216439277
8,066185623;0,81399101;-0,473267019;0,230215445
8,076185623;0,785268664;-0,522226751;0,218634516
8,086185623;0,750930429;-0,537526369;0,259766102
8,096185623;0,729773223;-0,471835107;0,374108344
8,106185623;0,7050336;-0,377898395;0,520300806
8,116185623;0,635565042;-0,360354543;0,63959676
8,126185623;0,55370754;-0,343940228;0,818827569
8,136185623;0,378800124;-0,019779565;1,839520812
8,146185623;-0,16659379;0,700709105;4,421676636
8,156185623;-0,96821183;1,428093314;7,358593464
8,166185623;-1,418435097;1,637001514;7,783848286
8,176185623;-1,160694957;1,25849092;6,56161499
8,186185623;-0,368456274;0,840355277;4,313676357
8,196185623;0,740875065;1,137194633;3,27653265
8,206185623;2,14306736;2,307558537;3,753143549
8,216185623;3,135574818;3,225159407;4,361195564
8,226185623;2,695503712;2,532811642;3,342937231
8,236185623;1,165407062;0,430198878;0,610749841
8,246185623;-0,238509893;-1,736916065;-2,369819641
8,256185623;-0,939525604;-2,776195526;-3,91303134
8,266185623;-1,185524106;-2,447167397;-3,248379707
8,276185623;-1,313460469;-1,363679647;-1,172067285
8,286185623;-1,394578099;-0,297722965;0,86505121
8,296185623;-1,412160277;0,264927357;1,914017677
8,306185623;-1,349168897;0,342283666;1,994996786
8,316185623;-1,101222157;0,300543159;1,680956483
8,326185623;-0,552732348;0,447824746;1,413270593
8,336185623;0,19626154;0,732631743;1,203987718
8,346185623;0,883111417;0,908258796;0,874770164
8,356185623;1,320919156;0,879511952;0,426368386
8,366185623;1,52437222;0,769640028;0,050744023
8,376185623;1,562882662;0,741225362;-0,034662947
8,386185623;1,461111426;0,83280921;0,217810497
8,396185623;1,276478767;0,991983712;0,672328472
8,406185623;1,101528764;1,14655149;1,124014616
8,416185623;0,967492104;1,229590774;1,413618803
8,426185623;0,806421578;1,18478632;1,469510198
8,436185623;0,569285035;0,985856831;1,276244521
8,446185623;0,29542765;0,667633533;0,887303889
8,456185623;0,051598914;0,322194308;0,436628133
8,466185623;-0,133364886;0,061608464;0,093292609
8,476185623;-0,263969213;-0,034980204;-0,021619229
8,486185623;-0,338543683;0,030387433;0,085282408
8,496185623;-0,347051054;0,181539983;0,293248385
8,506185623;-0,286489099;0,323076874;0,458134502
8,516185623;-0,176726833;0,396948695;0,506141365
8,526185623;-0,05568492;0,403867662;0,45902133
8,536185623;0,047317013;0,373413146;0,372894675
8,546185623;0,125200316;0,33543393;0,293997854
8,556185623;0,175141618;0,304051071;0,244368494
8,566185623;0,181757167;0,278456539;0,222555503
8,576185623;0,13158378;0,256756395;0,22072117
8,586185623;0,036697432;0,241077766;0,237357974
8,596185623;-0,05770557;0,236310393;0,272451043
8,606185623;-0,096680224;0,244431317;0,309026033
8,616185623;-0,048708472;0,246116608;0,299699962
8,626185623;0,062503807;0,20123437;0,195932567
8,636185623;0,129078731;0,084917247;0,011340327
8,646185623;0,050733376;-0,063912302;-0,156842932
8,656185623;-0,143625692;-0,144332588;-0,182524756
8,666185623;-0,325419039;-0,091000482;-0,027225515
8,676185623;-0,398955494;0,04901721;0,207908481
8,686185623;-0,378608495;0,14724645;0,348690569
8,696185623;-0,317698419;0,109687746;0,277921051
8,706185623;-0,249275327;-0,041064505;0,031156089
8,716185623;-0,190124005;-0,20077233;-0,23913376
8,726185623;-0,140983298;-0,260799825;-0,369980812
8,736185623;-0,09542717;-0,170510516;-0,284144819
8,746185623;-0,050577942;0,042977624;-0,018276323
8,756185623;-0,00923238;0,299365669;0,316629559
8,766185623;0,02453948;0,509717464;0,598890007
8,776185623;0,050260685;0,622346759;0,753842175
8,786185623;0,05662711;0,640598595;0,77870208
8,796185623;0,020433242;0,610692322;0,734693885
8,806185623;-0,062175907;0,595713139;0,709133446
8,816185623;-0,16532369;0,642304122;0,760905921
8,826185623;-0,260016263;0,749183357;0,881788135
8,836185623;-0,333785892;0,872206569;1,013411283
8,846185623;-0,381346703;0,971467435;1,103539824
8,856185623;-0,399346232;1,038603425;1,132365465
8,866185623;-0,395513594;1,076320767;1,099839211
8,876185623;-0,386929572;1,070824027;1,008281946
8,886185623;-0,413799495;0,996995926;0,856338382
8,896185623;-0,541241884;0,853687465;0,652816176
8,906185623;-0,781234801;0,681899428;0,431092113
8,916185623;-1,033182383;0,550816;0,251994371
8,926185623;-1,114879131;0,535041571;0,189678997
8,936185623;-0,910317779;0,69003737;0,310632557
8,946185623;-0,47700277;0,999559522;0,618222415
8,956185623;-0,002479499;1,352128506;1,008951545
8,966185623;0,260272861;1,58139956;1,296809793
8,976185623;0,160013378;1,525211096;1,272714257
8,986185623;-0,203777745;1,066030145;0,779146016
8,996185623;-0,530759633;0,138563424;-0,254698515
9,006185623;-0,462173671;-1,190137029;-1,770893335
9,016185623;0,136552349;-2,604380846;-3,511982679
9,026185623;0,280415446;-2,986451387;-5,008373737
9,036185623;0,576827884;-2,868735313;-5,715423584
9,046185623;1,232389688;-2,738478184;-5,347604752
9,056185623;1,141373277;-1,927831054;-4,133370399
9,066185623;0,76011169;-0,938930511;-2,627263784
9,076185623;0,417779028;-0,181959435;-1,388404369
9,086185623;0,231913507;0,088643409;-0,768543482
9,096185623;0,180170879;-0,11090035;-0,772346318
9,106185623;0,232902542;-0,536672533;-1,132128119
9,116185623;0,374354273;-0,89624244;-1,507135987
9,126185623;0,58054018;-1,0297575;-1,69644022
9,136185623;0,802451611;-0,970014215;-1,705421448
9,146185623;0,960692406;-0,847594678;-1,62435174
9,156185623;0,975319207;-0,769373894;-1,513969779
9,166185623;0,818873346;-0,753030896;-1,366194248
9,176185623;0,554259002;-0,748700023;-1,153602481
9,186185623;0,317853868;-0,724505484;-0,927560389
9,196185623;0,217557117;-0,736240804;-0,835112035
9,206185623;0,25743565;-0,864935219;-0,998389482
9,216185623;0,350145906;-1,102260113;-1,373373032
9,226185623;0,384487331;-1,344891191;-1,758448005
9,236185623;0,298499078;-1,47788775;-1,928446412
9,246185623;0,106368259;-1,420944452;-1,73480916
9,256185623;-0,109793141;-1,129123688;-1,147858858
9,266185623;-0,249505281;-0,609720349;-0,26400435
9,276185623;-0,267275929;0,030616326;0,708923697
9,286186039;-0,208779335;0,589290321;1,511713862
9,296186039;-0,158624038;0,853596985;1,894823551
9,306186039;-0,146380916;0,709102571;1,678957105
9,316186039;-0,131692365;0,237429306;0,900542438
9,326186039;-0,094196469;-0,325820416;-0,139412984
9,336186039;-0,089626059;-0,751076281;-1,019539237
9,346186039;-0,176939756;-0,916059315;-1,400379181
9,356186039;-0,334488541;-0,819435477;-1,19035852
9,366186039;-0,462404698;-0,526672602;-0,553529739
9,376186039;-0,46089825;-0,132233188;0,219872668
9,386186039;-0,31472069;0,252484083;0,888819933
9,396186039;-0,100330807;0,537971377;1,358171225
9,406186039;0,062267464;0,67292577;1,628726244
9,416186039;0,085238762;0,645299911;1,715696096
9,426186039;-0,031754404;0,484315634;1,618661284
9,436186039;-0,217164278;0,256951243;1,365043402
9,446186039;-0,394430876;0,049997725;1,052679777
9,456186039;-0,537513614;-0,081480652;0,798920274
9,466186039;-0,615638554;-0,098663613;0,717598259
9,476186039;-0,671841979;0,07203535;1,115047336
9,486186039;-1,178783894;0,346201479;2,319706917
9,496186039;-2,528054953;0,504885137;4,000589848
9,506186039;-4,30289793;0,470583111;5,215158939
9,516186039;-5,459627628;0,372120708;5,317611217
9,526186039;-5,079545498;0,389295161;4,398450851
9,536186039;-3,386276722;0,450665146;2,752488613
9,546186039;-1,363604069;0,307832599;0,494782954
9,556186039;0,214877471;-0,10298916;-2,133977652
9,566186039;1,098117709;-0,51530242;-4,397063732
9,576186039;1,469623089;-0,587585866;-5,326746941
9,586186039;1,584044099;-0,21904546;-4,535626888
9,596186039;1,553194642;0,448361307;-2,495743752
9,606186039;1,37592268;1,171674371;-0,049038503
9,616186039;1,090030909;1,750839114;2,082451105
9,626186039;0,817899227;2,091353416;3,452057362
9,636186039;0,672437072;2,165217876;3,891744137
9,646186039;0,656006813;1,948568821;3,418964863
9,656186039;0,715527534;1,476400495;2,242015123
9,666186039;0,808537006;0,921363235;0,841827631
9,676186039;0,902714252;0,506519318;-0,228553578
9,686186039;0,986006916;0,356619835;-0,656364501
9,696186039;1,039831996;0,431839466;-0,517499804
9,706186039;1,005274415;0,599440396;-0,103417136
9,716186039;0,811580718;0,722676456;0,296167552
9,726186039;0,456458807;0,714168012;0,481711566
9,736186039;0,03721058;0,575128734;0,40789938
9,746186039;-0,311650306;0,373594135;0,163310498
9,756186039;-0,507837355;0,196446776;-0,101530634
9,766186039;-0,545393944;0,107557438;-0,2551893
9,776186039;-0,457265764;0,132585585;-0,230468825
9,786186039;-0,303151459;0,256297559;-0,030975103
9,796186039;-0,141706184;0,435002446;0,284138411
9,806186039;0,006943448;0,616450906;0,617867887
9,816186039;0,176650181;0,752657235;0,85329783
9,826186039;0,397583216;0,801606297;0,890607417
9,836186039;0,563071907;0,737495959;0,72078681
9,846186039;0,512776077;0,590482652;0,462302506
9,856186039;0,256752163;0,45857951;0,301475763
9,866186039;0,008210345;0,436392844;0,345461577
9,876186039;-0,042167448;0,522435367;0,521445274
9,886186039;0,04913751;0,608252227;0,633017421
9,896186039;0,111437976;0,575117052;0,507808566
9,906186039;0,067612916;0,397912174;0,133140251
9,916186039;-0,055149417;0,146204188;-0,351954699
9,926186039;-0,191781625;-0,072855107;-0,762737036
9,936186039;-0,288007259;-0,175929427;-0,966590405
9,946186039;-0,299332678;-0,138448447;-0,930153787
9,956186039;-0,21705462;0,003538795;-0,720088363
9,966186039;-0,086672798;0,17284736;-0,466313988
9,976186039;0,031344526;0,301804721;-0,280949891
9,986186039;0,093333058;0,368355155;-0,195514172
9,996186039;0,074073032;0,386356801;-0,171511263
10,00618604;-0,02887461;0,377204269;-0,164723247
10,01618604;-0,182404444;0,35625574;-0,159395888
10,02618604;-0,326631635;0,335321069;-0,158979625
10,03618604;-0,41554442;0,321425647;-0,169205293
10,04618604;-0,438251674;0,316116393;-0,18481262
10,05618604;-0,410340548;0,322607398;-0,190328419
10,06618604;-0,355924636;0,345034659;-0,175185263
10,07618604;-0,292607456;0,379936069;-0,144618973
10,08618604;-0,223859668;0,417313814;-0,112006485
10,09618604;-0,140721411;0,448892534;-0,085166365
10,10618604;-0,040103152;0,474367827;-0,06192572
10,11618604;0,071375281;0,503467083;-0,034417018
10,12618604;0,17478922;0,548853934;0,010127725
10,13618604;0,242893994;0,613883018;0,087150812
10,14618604;0,260738075;0,695394516;0,210973516
10,15618604;0,224682614;0,795351684;0,398300767
10,16618604;0,132046878;0,911264241;0,644431233
10,17618604;-0,016680459;1,019345522;0,896050811
10,18618604;-0,190328419;1,085503101;1,077272534
10,19618604;-0,319563627;1,1066432;1,16755116
10,20618604;-0,344615191;1,128532887;1,249878168
10,21618604;-0,246779859;1,197983265;1,425999284
10,22618604;-0,036217291;1,305226684;1,694356799
10,23618604;0,253910691;1,38432467;1,936804771
10,24618604;0,574971199;1,366999149;2,012594938
10,25618604;0,875860333;1,231107831;1,856053352
10,26618604;1,079705119;1,006320953;1,480368257
10,27618604;1,034843087;0,744478822;0,912223458
10,28618604;0,633553982;0,461431623;0,118174888
10,29618604;0,075368673;0,100969575;-1,002571344
10,30618604;-0,180132553;-0,396781564;-2,515958786
10,31618604;0,122570708;-0,94593358;-4,259186745
10,32618604;0,652722478;-1,321932673;-5,73400116
10,33618604;0,845083237;-1,355764151;-6,281469822
10,34618604;0,563397706;-1,024703741;-5,559288502
10,35618604;0,14100565;-0,418683976;-3,911587715
10,36618604;-0,046669725;0,29672116;-2,064592123
10,37618604;0,09661635;0,911240816;-0,643479466
10,38618604;0,414768308;1,263877869;0,035264455
10,39618604;0,722192049;1,328856945;-0,014934482
10,40618604;0,947563529;1,181214452;-0,607085407
10,41618604;1,114253163;0,941865683;-1,488295436
10,42618604;1,215801835;0,714132905;-2,407623053
10,43618604;1,191231489;0,540013313;-3,17648387
10,44618604;1,008795142;0,42087388;-3,667499065
10,45618604;0,696019471;0,354559809;-3,818044901
10,46618604;0,317406714;0,343548447;-3,660721779
10,47618604;-0,014721558;0,392573118;-3,326583385
10,48618604;-0,169318154;0,504463553;-2,976876259
10,49618604;-0,118941419;0,647526026;-2,722239494
10,50618604;0,016321681;0,756181121;-2,577716351
10,51618604;0,076883622;0,768305004;-2,488965273
10,52618604;-0,00892364;0,670505881;-2,378203392
10,53618604;-0,207870141;0,514239967;-2,185430527
10,54618604;-0,434629828;0,385575354;-1,891763926
10,55618604;-0,610057831;0,357249051;-1,49931848
10,56618604;-0,710942268;0,439582437;-1,021055222
10,57618604;-0,762544334;0,583300769;-0,503209412
10,58618604;-0,78985399;0,719770074;-0,0411699
10,59618604;-0,783878267;0,792157829;0,247053474
10,60618604;-0,734617233;0,768419981;0,298411787
10,61618604;-0,687498271;0,630510271;0,154310212
10,62618604;-0,701273382;0,36435324;-0,111142017
10,63618604;-0,761714995;-0,020175604;-0,466132998
10,64618604;-0,777529955;-0,454211384;-0,88127923
10,65618604;-0,686305881;-0,823028564;-1,236378789
10,66618604;-0,548337579;-1,026393294;-1,329836369
10,67618604;-0,477499932;-1,000466585;-1,021769643
10,68618604;-0,528611243;-0,715175152;-0,336165309
10,69618604;-0,66098392;-0,211928472;0,546110392
10,70618604;-0,771338105;0,349680662;1,349364758
10,71618604;-0,781918287;0,733656943;1,804726958
10,72618604;-0,72553283;0,76662612;1,784045696
10,73618604;-0,727512002;0,453840911;1,380652785
10,74618604;-0,859904885;-0,037862126;0,826546073
10,75618604;-1,066498518;-0,502410948;0,330803901
10,76618604;-1,243946075;-0,805955291;-0,006256768
10,77618604;-1,350034356;-0,916112542;-0,177689254
10,78618604;-1,373599768;-0,78350991;-0,154725403
10,79618604;-1,491976857;-0,14465943;0,361840755
10,80618604;-2,262479305;1,261343122;1,786158919
10,81618604;-3,7781322;3,157891273;3,857965946
10,82618604;-5,224220753;4,76050663;5,567103863
10,83618604;-5,545634747;5,357459068;6,020223141
10,84618604;-4,354258537;4,78433609;5,10244751
10,85618604;-2,400194168;3,440642595;3,293382168
10,86618604;-0,661883533;1,836406827;1,07852447
10,87618604;0,437885433;0,27832666;-1,174079418
10,88618604;1,055730939;-0,930471063;-2,924278736
10,89618604;1,425017715;-1,404507756;-3,590861559
10,90618604;1,536967754;-1,018806815;-3,110877752
10,91618604;1,391652465;-0,085031159;-1,979619503
10,92618604;0,999966204;0,962738574;-0,73547852
10,93618604;0,3540456;1,936639667;0,419885933
10,94618604;-0,388301849;2,842973709;1,515493274
10,95618604;-0,849588692;3,568956852;2,477735758
10,96618604;-0,749806166;3,827068567;3,007667065
10,97618604;-0,239414826;3,437884092;2,79232645
10,98618604;0,315034747;2,549632788;1,856837988
10,99618604;0,707188368;1,504892826;0,59419179
11,00618604;0,932215929;0,642619252;-0,494326234
11,01618604;1,035000682;0,186502174;-1,061633229
11,02618604;1,022825718;0,178110838;-1,046928644
11,03618604;0,890189052;0,484342247;-0,633528411
11,04618604;0,656316638;0,886763096;-0,102087423
11,05618604;0,387589633;1,187630892;0,307781488
11,06618604;0,154490128;1,276787519;0,459585577
11,07618604;-0,016478181;1,165516615;0,355540335
11,08618604;-0,131125987;0,953669071;0,114744686
11,09618604;-0,180011183;0,75945586;-0,098533727
11,10618604;-0,149882451;0,65641135;-0,163769349
11,11618604;-0,074175231;0,65367955;-0,058555137
11,12618604;-0,005223023;0,723405719;0,168534592
11,13618604;0,037174381;0,81950897;0,43171066
11,14618604;0,065968081;0,89660126;0,644092679
11,15618604;0,095423974;0,92137599;0,7461375
11,16618604;0,122024558;0,87850374;0,714263856
11,17618604;0,133796051;0,78183949;0,574712455
11,18618604;0,122001134;0,666743517;0,391847044
11,19618604;0,084681965;0,572720587;0,240746662
11,20618604;0,03080583;0,524379373;0,176962122
11,21618604;-0,020250127;0,519908011;0,206562802
11,22618604;-0,04128062;0,535825133;0,282586217
11,23618604;-0,018849088;0,52794373;0,314061671
11,24618604;0,015589223;0,444927901;0,202547044
11,25618604;0,014386203;0,268198937;-0,083412938
11,26618604;0,026991298;0,024348913;-0,473836571
11,27618604;0,163398862;-0,227816865;-0,836343765
11,28618604;0,347986847;-0,406402528;-1,051616192
11,29618604;0,357078701;-0,420953751;-1,027944446
11,30618604;0,133116826;-0,216338128;-0,698324382
11,31618604;-0,129271418;0,153580949;-0,109693065
11,32618604;-0,242768377;0,516022146;0,509431064
11,33618604;-0,239925846;0,695245504;0,859242678
11,34618604;-0,224570841;0,648133934;0,815190852
11,35618604;-0,21015802;0,468603969;0,516710937
11,36618604;-0,16520445;0,279356152;0,200198501
11,37618604;-0,086255468;0,14819397;0,005991678
11,38618604;-0,013281128;0,079109743;-0,071879916
11,39618604;0,012655132;0,046620753;-0,103066877
11,40618604;-0,009812598;0,029712465;-0,134186774
11,41618604;-0,078691348;0,030000977;-0,161373958
11,42618604;-0,208461016;0,069204524;-0,148931742
11,43618604;-0,385018557;0,165858135;-0,057946175
11,44618604;-0,565728128;0,319343269;0,135154501
11,45618604;-0,708970547;0,502435446;0,415919155
11,46618604;-0,792229116;0,668753505;0,726204634
11,47618604;-0,833340466;0,78483218;0,998796165
11,48618604;-0,859359801;0,856778085;1,222594142
11,49618604;-0,864485919;0,928594112;1,48230052
11,50618604;-0,784872591;1,040676236;1,904702187
11,51618604;-0,531230211;1,171800017;2,497429132
11,52618604;-0,084774584;1,250116706;3,077560425
11,53618604;0,478203654;1,228556991;3,388590097
11,54618604;1,016154766;1,122534752;3,278258324
11,55618604;1,362968445;0,975747168;2,773582935
11,56618604;1,406891465;0,807333946;1,961025834
11,57618604;1,183503389;0,599777877;0,851945758
11,58618604;0,955431044;0,309443355;-0,653909504
11,59618604;1,061193585;-0,109909184;-2,627434015
11,60618604;1,551598787;-0,645349979;-4,846821785
11,61618604;2,051981688;-1,197153926;-6,759169102
11,62618604;2,099749088;-1,629331946;-7,415029049
11,63618604;1,680032372;-1,851793766;-7,414777756
11,64618604;1,106950879;-1,828632951;-7,016569614
11,65618604;0,684230924;-1,556970835;-5,814121246
11,66618604;0,502913475;-1,144717216;-4,494391441
11,67618604;0,498545349;-0,73735863;-3,272430658
11,68618604;0,586113453;-0,432629406;-2,263389587
11,69618604;0,680624008;-0,276567906;-1,534157157
11,70618604;0,746401548;-0,289432764;-1,129074693
11,71618604;0,815477252;-0,472484499;-1,056890368
11,72618604;0,921576142;-0,77552098;-1,234925628
11,73618604;1,022856593;-1,095764875;-1,47562325
11,74618604;1,01234138;-1,328516245;-1,575379252
11,75618604;0,817366958;-1,426744461;-1,442060113
11,76618604;0,477571279;-1,422534943;-1,149259925
11,77618604;0,140496776;-1,408573508;-0,890624464
11,78618604;-0,038684014;-1,502283454;-0,871215403
11,79618604;-0,022810537;-1,748872757;-1,021152139
11,80618604;0,08372806;-2,069296598;-1,156760216
11,81618604;0,128784895;-2,306734562;-1,360040784
11,82618604;0,037042372;-2,316596985;-1,39667213
11,83618604;-0,139125541;-2,044044971;-0,982539475
11,84618604;-0,264783651;-1,524543643;-0,266168714
11,85618604;-0,235268131;-0,887983143;0,551414311
11,86618604;-0,06989333;-0,312102795;1,277956486
11,87618604;0,11055541;0,047980271;1,76212728
11,88618604;0,223673359;0,076687738;1,867607713
11,89618604;0,306769043;-0,270880729;1,5234375
11,90618604;0,437041193;-0,898542047;0,848689079
11,91618604;0,609556377;-1,578337789;0,139992133
11,92618604;0,730218232;-2,055947304;-0,294608951
11,93618604;0,72428298;-2,154506683;-0,278761029
11,94618604;0,60402143;-1,85406673;0,169577911
11,95618604;0,438133508;-1,284906268;0,882430077
11,96618604;0,27195704;-0,672397673;1,622651458
11,97618604;0,101819143;-0,205529049;2,1957829
11,98618604;-0,075706154;0,062495291;2,530929565
11,99618604;-0,255901515;0,186950371;2,677323103
12,00618604;-0,480206192;0,270763606;2,751853943
12,01618604;-0,803819656;0,393223584;2,83880353
12,02618604;-1,18157649;0,562933505;2,930599451
12,03618604;-1,457577944;0,699411333;2,936411142
12,04618604;-1,494323373;0,677996516;2,740808487
12,05618604;-1,279854655;0,474300742;2,332883596
12,06618604;-0,969283879;0,261552513;1,888216615
12,07618604;-0,848679543;0,422202528;1,792510509
12,08618604;-1,064079762;1,219065905;2,351314306
12,09618604;-1,373821139;2,374828577;3,397628784
12,10618604;-1,276707649;3,182715178;4,324580193
12,11618604;-0,544940412;2,99382925;4,338242531
12,12618604;0,322097421;1,786490083;3,002248287
12,13618604;0,555131972;0,128057748;0,695062399
12,14618604;0,026975328;-1,33676815;-1,647060037
12,15618604;-0,654716492;-2,128251076;-3,081403732
12,16618604;-0,965564072;-2,024432421;-3,176003695
12,17618604;-0,985425651;-1,208136559;-2,287908792
12,18618604;-0,893376529;-0,1953087;-1,127031684
12,19618604;-0,623984098;0,546646953;-0,187642381
12,20618604;-0,24884522;0,955641866;0,445743412
12,21618604;-0,014248868;1,252162814;0,930423141
12,22618604;0,037813153;1,524680972;1,343164444
12,23618604;0,148215264;1,628296137;1,581714749
12,24618604;0,474685073;1,400950909;1,465345502
12,25618604;0,873869479;0,911745429;0,984777272
12,26618604;1,140756845;0,411234826;0,385819167
12,27618604;1,24545145;0,123467118;-0,015622227
12,28618604;1,247163415;0,107247636;-0,094542466
12,29618604;1,151507378;0,25118205;0,014137082
12,30618604;0,935266078;0,405661553;0,107283838
12,31618604;0,6292274;0,483954728;0,080198847
12,32618604;0,318143427;0,480842829;-0,043293815
12,33618604;0,071978927;0,43513447;-0,187188849
12,34618604;-0,096496046;0,393871933;-0,292151809
12,35618604;-0,192392707;0,387477845;-0,327251256
12,36618604;-0,208418429;0,414995074;-0,285612911
12,37618604;-0,167414606;0,458601862;-0,184861585
12,38618604;-0,12948966;0,500207186;-0,063506678
12,39618604;-0,138890252;0,534746647;0,048527487
12,40618604;-0,175895363;0,570657313;0,157166585
12,41618604;-0,186874792;0,617861509;0,288792938
12,42618604;-0,145779416;0,672839522;0,445399523
12,43618604;-0,070446938;0,718420148;0,588457763
12,44618604;0,002082396;0,734361768;0,66352731
12,45618604;0,053064894;0,703008711;0,633662581
12,46618604;0,087622441;0,616962969;0,496425688
12,47618604;0,116374619;0,483697087;0,278855771
12,48618604;0,137058049;0,325407326;0,026901869
12,49618604;0,137978941;0,168905079;-0,213182598
12,50618604;0,11136239;0,038153835;-0,411393464
12,51618604;0,056682471;-0,050921813;-0,55384165
12,52618604;-0,005659517;-0,099857047;-0,6362198
12,53618604;-0,039770991;-0,118286677;-0,657577157
12,54618604;0,023327943;-0,119554639;-0,619670272
12,55618604;0,232007205;-0,126993135;-0,553283811
12,56618604;0,456452399;-0,147536039;-0,516913235
12,57618604;0,475030005;-0,150921524;-0,526894033
12,58618604;0,233822376;-0,084498845;-0,500141203
12,59618604;-0,07538145;0,081171915;-0,311935633
12,60618604;-0,231587738;0,309048384;0,049617656
12,61618604;-0,208276838;0,515692115;0,435038656
12,62618604;-0,090684287;0,623011053;0,659347594
12,63618604;0,045129221;0,605063736;0,64683193
12,64618604;0,138615578;0,502597272;0,46447432
12,65618604;0,15057978;0,388130456;0,24421306
12,66618604;0,073631212;0,329286814;0,107772492
12,67618604;-0,063044637;0,367517292;0,132336468
12,68618604;-0,207964897;0,495033145;0,313945651
12,69618604;-0,319353908;0,65573746;0,566470206
12,70618604;-0,361042261;0,770979345;0,770906925
12,71618604;-0,314472616;0,788222969;0,847394526
12,72618604;-0,209266931;0,721027374;0,800657749
12,73618604;-0,113620453;0,635466039;0,703724146
12,74618604;-0,084379613;0,594561219;0,635477781
12,75618604;-0,105715647;0,598993242;0,61502856
12,76618604;-0,124202766;0,597587943;0,597850919
12,77618604;-0,096908055;0,551478207;0,537696719
12,78618604;-0,009854118;0,474104851;0,45252502
12,79618604;0,134195283;0,412638009;0,429734707
12,80618604;0,33364749;0,398910791;0,555742025
12,81618604;0,551739037;0,423715353;0,818184555
12,82618604;0,676715791;0,444436044;1,077302337
12,83618604;0,525363088;0,397190362;1,122382522
12,84618604;0,02428823;0,209223285;0,746309996
12,85618604;-0,579722583;-0,166075319;-0,184633762
12,86618604;-0,821268737;-0,682926774;-1,587820292
12,87618604;-0,461434841;-1,1895504;-3,093907595
12,88618604;0,244158775;-1,497848272;-4,169967651
12,89618604;0,811840475;-1,497014642;-4,426006317
12,90618604;0,942083895;-1,249695063;-3,936342239
12,91618604;0,672579765;-0,945464075;-3,152710915
12,92618604;0,228430077;-0,759843409;-2,536406994
12,93618604;-0,155380145;-0,734258473;-2,264474392
12,94618604;-0,34757483;-0,793112755;-2,226570845
12,95618604;-0,341265917;-0,859289527;-2,258927822
12,96618604;-0,19190298;-0,905898571;-2,291507244
12,97618604;-0,002304901;-0,948798478;-2,337017536
12,98618604;0,11743924;-1,015436172;-2,422510862
12,99618604;0,111256994;-1,11403811;-2,533809185
13,00618604;-0,021898158;-1,218284488;-2,596906185
13,01618604;-0,250672102;-1,279695988;-2,516446352
13,02618604;-0,504810631;-1,263023019;-2,259730339
13,03618604;-0,680353582;-1,169289708;-1,891904354
13,04618604;-0,699674308;-1,04385829;-1,544080496
13,05618604;-0,576882184;-0,948945403;-1,328131914
13,06618604;-0,420393735;-0,920604169;-1,250873566
13,07618604;-0,352666914;-0,950508237;-1,22136879
13,08618604;-0,410320312;-0,98807013;-1,124529839
13,09618604;-0,523627758;-0,971348166;-0,892158568
13,10618604;-0,594545245;-0,86541748;-0,517712772
13,11618604;-0,587889254;-0,690967858;-0,045484804
13,12618604;-0,53475517;-0,511108935;0,437772602
13,13618604;-0,474608421;-0,391524464;0,816592932
13,14618604;-0,409519732;-0,375014335;0,986018598
13,15618604;-0,313777417;-0,455472946;0,934063077
13,16618604;-0,183780998;-0,580736101;0,76249963
13,17618604;-0,053508841;-0,678721547;0,627051294
13,18618604;0,031584065;-0,69597584;0,64636457
13,19618604;0,043314043;-0,627864659;0,843855739
13,20618604;-0,014154116;-0,510611713;1,159947634
13,21618604;-0,104207084;-0,399456948;1,487883449
13,22618604;-0,143093377;-0,334738731;1,735029578
13,23618604;-0,049517583;-0,327145845;1,865676403
13,24618604;0,159455508;-0,360548288;1,906294823
13,25618604;0,37641111;-0,406279027;1,909171462
13,26618604;0,501332521;-0,449033082;1,904204965
13,27618604;0,582414985;-0,496296853;1,889209867
13,28618604;0,753760159;-0,55087775;1,86653769
13,29618604;1,038435221;-0,585068047;1,862869024
13,30618604;1,312878132;-0,575868666;1,874359488
13,31618604;1,425440311;-0,554329276;1,828297615
13,32618604;1,358386278;-0,587286711;1,636719346
13,33618604;1,199187398;-0,681245744;1,318862319
13,34618604;0,987041712;-0,711180747;1,063539982
13,35618604;0,683746517;-0,424939662;1,196944237
13,36618604;0,157464668;0,38601613;1,977010131
13,37618604;-0,599435091;1,583163738;3,284128666
13,38618604;-1,195421815;2,591784239;4,511612415
13,39618604;-1,194392323;2,714271784;4,728889465
13,40618604;-0,712130368;1,716489196;3,330438375
13,41618604;-0,354795098;0,06960056;0,755671144
13,42618604;-0,44210878;-1,491734147;-1,859234452
13,43618604;-0,674854815;-2,374906301;-3,437743664
13,44618604;-0,727925062;-2,268452883;-3,459017992
13,45618604;-0,662180543;-1,333334804;-2,278865814
13,46618604;-0,470889717;-0,146565095;-0,713702798
13,47618604;0,131403849;0,696864784;0,570675433
13,48618604;1,206348062;0,936859846;1,248028874
13,49618604;2,169237852;0,758453012;1,315000892
13,50618604;2,260809898;0,5175488;0,982576728
13,51618604;1,513386369;0,443799406;0,605768502
13,52618604;0,683020473;0,575996399;0,500505328
13,53618604;0,39543587;0,780639708;0,688133836
13,54618604;0,599073112;0,923769236;0,956219912
13,55618604;0,900470078;0,965088189;1,104510784
13,56618604;1,086060882;0,8996737;1,058711886
13,57618604;1,150794029;0,728066623;0,831806362
13,58618604;1,124022007;0,487239063;0,484135717
13,59618604;0,992976964;0,265032768;0,123863153
13,60618604;0,801801145;0,142283201;-0,120628841
13,61618604;0,642856658;0,150417954;-0,165491909
13,62618604;0,545670688;0,26005885;-0,036927391
13,63618604;0,449841112;0,396345049;0,139668494
13,64618604;0,31184727;0,481300622;0,237120569
13,65618604;0,15925324;0,48862201;0,220879793
13,66618604;0,031127345;0,449040532;0,144095182
13,67618604;-0,063243717;0,407607675;0,076373674
13,68618604;-0,12130487;0,391612828;0,059710249
13,69618604;-0,137092113;0,411920428;0,109805919
13,70618604;-0,121726461;0,456197977;0,211111918
13,71618604;-0,094664901;0,48545903;0,312149614
13,72618604;-0,071421064;0,465866834;0,345985353
13,73618604;-0,067066766;0,387970775;0,259246558
13,74618604;-0,085385673;0,262505352;0,044172127
13,75618604;-0,079316281;0,098895699;-0,256439149
13,76618604;0,00581921;-0,090376616;-0,571134269
13,77618604;0,091626473;-0,262130618;-0,83399415
13,78618604;0,02744589;-0,349198371;-0,983984113
13,79618604;-0,192892015;-0,297243893;-0,953258157
13,80618604;-0,386636794;-0,12139111;-0,730282128
13,81618604;-0,394627839;0,089235343;-0,410852641
13,82618604;-0,272441447;0,236935318;-0,155404642
13,83618604;-0,161132291;0,281869709;-0,058381602
13,84618604;-0,099696293;0,25607717;-0,074131586
13,85618604;-0,037310656;0,216662839;-0,098575249
13,86618604;0,056960337;0,205000997;-0,067617178
13,87618604;0,153209388;0,229157209;0,014122178
13,88618604;0,215327814;0,267517596;0,107547857
13,89618604;0,226467982;0,292117745;0,177228272
13,90618604;0,169926047;0,289481759;0,2011673
13,91618604;0,045792479;0,26546073;0,176264793
13,92618604;-0,108551793;0,236458376;0,118170634
13,93618604;-0,250322908;0,216746941;0,049955141
13,94618604;-0,366057694;0,20869948;-0,012972388
13,95618604;-0,466868639;0,207574189;-0,06518878
13,96618604;-0,563235879;0,216117755;-0,098244153
13,97618604;-0,640406966;0,247599617;-0,093616247
13,98618604;-0,647090614;0,309348613;-0,036085278
13,99618604;-0,527012169;0,388628691;0,065371893
14,00618604;-0,293710411;0,449946523;0,159457639
14,01618604;-0,050324563;0,457498938;0,179486334
14,02618604;0,092959382;0,411702186;0,10762132
14,03618604;0,103649221;0,353870988;0,001536246
14,04618604;0,015757432;0,332759589;-0,044390373
14,05618604;-0,121790342;0,370039374;0,038444474
14,06618604;-0,251448214;0,46387282;0,283747703
14,07618604;-0,285728961;0,602919579;0,704052031
14,08618604;-0,136736527;0,754876971;1,251925468
14,09618604;0,187803134;0,868308961;1,792883039
14,10618604;0,550018609;0,901074767;2,163332224
14,11618604;0,796587706;0,844559431;2,269424915
14,12618604;0,867713869;0,723189652;2,119199514
14,13618604;0,728016615;0,563683033;1,742882133
14,14618604;0,341785431;0,364986688;1,107863307
14,15618604;-0,129622743;0,10298384;0,102040581
14,16618604;-0,247789115;-0,233214483;-1,388710976
14,17618604;0,270457;-0,601259828;-3,262854338
14,18618604;1,120942116;-0,921384513;-5,097939968
14,19618604;1,665639758;-0,621252298;-6,28290844
14,20618604;1,584782958;-0,34454599;-6,377245426
14,21618604;1,103397131;-0,420538545;-5,488620281
14,22618604;0,60502857;-0,13585183;-4,148643494
14,23618604;0,322031438;0,232784376;-2,964990854
14,24618604;0,284125656;0,458783925;-2,335010767
14,25618604;0,413490742;0,476311833;-2,288321972
14,26618604;0,595788717;0,351517111;-2,582226038
14,27618604;0,709030211;0,186705515;-2,912824392
14,28618604;0,721188128;0,051437091;-3,109537363
14,29618604;0,674875081;-0,047218002;-3,158812284
14,30618604;0,598762214;-0,135547355;-3,097132444
14,31618604;0,485955149;-0,213807523;-2,934095621
14,32618604;0,32906431;-0,233314559;-2,649737835
14,33618604;0,148365378;-0,147318855;-2,248831987
14,34618604;-0,005875635;0,028882062;-1,801687479
14,35618604;-0,07062792;0,212927088;-1,432537079
14,36618604;-0,025610486;0,297749579;-1,260685086
14,37618604;0,068296403;0,228447109;-1,307782888
14,38618604;0,10823454;0,035702012;-1,472030163
14,39618604;0,041763958;-0,17381829;-1,57993257
14,40618604;-0,099058583;-0,263068527;-1,481510639
14,41618604;-0,235582188;-0,146162674;-1,136240721
14,42618604;-0,30592373;0,158917874;-0,617465436
14,43618604;-0,313328147;0,527921379;-0,080061518
14,44618604;-0,293531567;0,808205903;0,311592817
14,45618604;-0,273120672;0,905722916;0,456574827
14,46618604;-0,264224708;0,812033176;0,351412803
14,47618604;-0,27688092;0,582654536;0,075669959
14,48618604;-0,314655751;0,295354187;-0,264838994
14,49618604;-0,364813149;0,011908834;-0,583554149
14,50618604;-0,420600295;-0,22388947;-0,82487464
14,51618604;-0,488158911;-0,364946246;-0,945002019
14,52618604;-0,568424821;-0,367485344;-0,903298736
14,53618604;-0,675881147;-0,213261381;-0,689592361
14,54618604;-0,868450582;0,082997732;-0,34469825
14,55618604;-1,186038256;0,484457225;0,062104579
14,56618604;-1,570081592;0,9308213;0,468583763
14,57618604;-1,893579006;1,339852333;0,826236248
14,58618604;-2,071184158;1,642685533;1,090979457
14,59618604;-2,112050772;1,819985151;1,237696767
14,60618604;-2,084552526;1,911787271;1,285123467
14,61618604;-2,073773384;1,995518446;1,284996748
14,62618604;-2,119070768;2,127771854;1,288644195
14,63618604;-2,178515911;2,293170214;1,314876437
14,64618604;-2,180683613;2,42385006;1,342120051
14,65618604;-2,104554653;2,47386694;1,326744795
14,66618604;-1,958306909;2,447142839;1,241909504
14,67618604;-1,722033739;2,364471912;1,122310162
14,68618604;-1,475711703;2,325612307;1,109781742
14,69618604;-1,450744152;2,54621315;1,463494062
14,70618604;-2,043870211;3,243633747;2,224212646
14,71618604;-3,335030079;4,283771992;3,037648916
14,72618604;-4,690524101;5,134797096;3,561497211
14,73618604;-5,223213673;5,316824436;3,775646448
14,74618604;-4,376224995;4,651694298;3,670251131
14,75618604;-2,525567055;3,425402641;2,745093584
14,76618604;-0,637398303;2,187668562;0,516039133
14,77618604;0,526542723;1,395540476;-2,666719675
14,78618604;0,696336746;1,304881692;-5,672729015
14,79618604;0,218879372;1,747960448;-7,075959206
14,80618604;-0,207944676;2,132078409;-6,196708202
14,81618604;-0,132481247;1,994846702;-3,682945728
14,82618604;0,299397618;1,467237234;-0,728073061
14,83618604;0,658923864;0,980951011;1,791463971
14,84618604;0,765907466;0,746420681;3,461225986
14,85618604;0,754585266;0,683875382;4,164412498
14,86618604;0,747866452;0,676607192;3,903396368
14,87618604;0,705789506;0,696216404;2,807306767
14,88618604;0,601177871;0,728547871;1,27226603
14,89618604;0,527596653;0,727861166;-0,131993651
14,90618604;0,568843246;0,663443208;-0,950247407
14,91618604;0,685001731;0,561702847;-1,043563485
14,92618604;0,7773;0,475984991;-0,603045166
14,93618604;0,80162549;0,432133317;0,026151313
14,94618604;0,774650156;0,420234054;0,51296562
14,95618604;0,708373308;0,423981518;0,635187089
14,96618604;0,58115238;0,446927249;0,358248711
14,97618604;0,380115986;0,501576304;-0,163922653
14,98618604;0,147909716;0,58527565;-0,66371572
14,99618604;-0,045264427;0,676919162;-0,914150417
15,00618604;-0,164661497;0,751831114;-0,86008054
15,01618604;-0,219924837;0,793711066;-0,604942322
15,02618604;-0,225962296;0,791054845;-0,306371927
15,03618604;-0,195213959;0,749518752;-0,084956631
15,04618604;-0,165107578;0,701674759;-0,000786754
15,05618604;-0,179009378;0,679179311;-0,051497772
15,06618604;-0,235616267;0,679607272;-0,15854314
15,07618604;-0,288868517;0,67218262;-0,200528532
15,08618604;-0,289316744;0,631037235;-0,115333423
15,09618604;-0,212590665;0,550628662;0,044585198
15,10618604;-0,072369635;0,440927058;0,168707058
15,11618604;0,059547361;0,33425644;0,185531244
15,12618604;0,099525951;0,272441447;0,124923512
15,13618604;0,049445186;0,261975169;0,09243878
15,14618604;-0,00492493;0,264895439;0,16633296
15,15618604;-0,011863055;0,248969778;0,314294845
15,16618604;-0,003895443;0,222621515;0,427805632
15,17618604;-0,019022621;0,206960961;0,426809132
15,18618604;-0,043845288;0,204883888;0,315860897
15,19618604;-0,046334371;0,205733463;0,156562939
15,20618604;-0,017387366;0,196044356;0,019860476
15,21618604;0,032838188;0,166006118;-0,053532261
15,22618604;0,076825067;0,12400794;-0,073452353
15,23618604;0,085858367;0,09308394;-0,07358437
15,24618604;0,056899652;0,085313283;-0,07583604
15,25618604;0,013204476;0,089786813;-0,094619118
15,26618604;-0,034443635;0,094482847;-0,166220099
15,27618604;-0,10573481;0,101603024;-0,316308022
15,28618604;-0,203165591;0,110605448;-0,500586212
15,29618604;-0,296854228;0,112753846;-0,624106526
15,30618604;-0,356035382;0,103205279;-0,624694228
15,31618604;-0,362996906;0,08197996;-0,518327057
15,32618604;-0,309393317;0,048016466;-0,362875551
15,33618604;-0,224433497;0,004088139;-0,245359659
15,34618604;-0,173982248;-0,038873516;-0,274248093
15,35618604;-0,189103037;-0,070129678;-0,478608191
15,36618604;-0,196611792;-0,102043778;-0,733968914
15,37618604;-0,095904119;-0,162032962;-0,844673336
15,38618604;0,079453617;-0,249254033;-0,716191888
15,39618604;0,192303285;-0,326800913;-0,399906218
15,40618604;0,163058192;-0,360248059;0,030238386
15,41618604;-0,006407944;-0,339614689;0,531817913
15,42618604;-0,309378415;-0,272282809;1,039046288
15,43618604;-0,705513775;-0,186737448;1,449945688
15,44618604;-1,049028158;-0,138969034;1,701035142
15,45618604;-1,161687255;-0,185410932;1,827856898
15,46618604;-0,987779498;-0,335316807;1,908760548
15,47618604;-0,597097158;-0,546987653;1,975726128
15,48618604;-0,108803049;-0,754587412;1,986318111
15,49618604;0,334816426;-0,899378836;1,857764244
15,50618604;0,611933708;-0,957907319;1,521998167
15,51618604;0,692857563;-0,946546793;0,946009159
15,52618604;0,699589133;-0,91645956;0,130924776
15,53618604;0,821449757;-0,930225134;-0,900754333
15,54618604;1,129310012;-1,017459989;-2,100799799
15,55618604;1,516830444;-1,144504309;-3,368708372
15,56618604;1,785151839;-1,224880934;-4,545844078
15,57618604;1,80580759;-1,180638552;-5,440169334
15,58618604;1,60221827;-0,991211832;-5,870737553
15,59618604;1,323102713;-0,699958563;-5,699372292
15,60618604;1,180408597;-0,396045893;-4,881982803
15,61618604;1,284464478;-0,160558462;-3,579509497
15,62618604;1,515828609;-0,015903287;-2,179402828
15,63618604;1,629809976;0,059559073;-1,135195255
15,64618604;1,496603727;0,078325123;-0,735314608
15,65618604;1,194149613;0,046522807;-0,928057551
15,66618604;0,878550589;-0,002761623;-1,379950166
15,67618604;0,644309819;-0,026020365;-1,716333747
15,68618604;0,527661622;-0,016772015;-1,734922051
15,69618604;0,52336055;0,004618319;-1,462694526
15,70618604;0,564253628;0,039584681;-1,047479153
15,71618604;0,555757999;0,117906608;-0,634974182
15,72618604;0,463270247;0,256539226;-0,297511101
15,73618604;0,349592298;0,423310816;-0,046415281
15,74618604;0,298343629;0,558475971;0,064740576
15,75618604;0,299973577;0,638626873;-0,119872957
15,76618604;0,230404943;0,722092032;-0,731797099
15,77618604;-0,092142813;0,939186037;-1,713929892
15,78618604;-0,803674877;1,422763824;-2,799982309
15,79618604;-1,809620023;2,16443634;-3,596036673
15,80618604;-2,696261644;2,912144184;-3,714408398
15,81618604;-2,961604357;3,302407026;-2,978781939
15,82618604;-2,532687187;3,216244221;-1,653372169
15,83618604;-1,888613701;2,928316832;-0,331793994
15,84618604;-1,565530419;2,848589659;0,425063163
15,85618604;-1,810097933;3,276656151;0,295056105
15,86618604;-2,633405447;4,380275726;-0,761676669
15,87618604;-3,941210747;6,197490692;-2,525705338
15,88618604;-5,324763775;7,991114616;-4,421039104
15,89618604;-6,488060474;9,714086533;-5,847417355
15,90618604;-7,073877811;10,73259926;-6,447936058
15,91618604;-7,138287544;11,03197098;-6,351228237
15,92618604;-6,928186893;10,8351326;-5,918052673
15,93618604;-6,60182476;10,34385109;-5,431135178
15,94618604;-6,182557106;9,633399963;-4,950598717
15,95618604;-5,651647568;8,674456596;-4,359515667
15,96618604;-5,016540051;7,490660667;-3,553066492
15,97618604;-4,396955967;6,537446976;-2,623667479
15,98618604;-3,664719343;5,53983593;-1,742357254
15,99618604;-3,0303967;4,914051533;-1,101758718
16,00618604;-2,586238623;4,473442554;-0,726920068
16,01618604;-2,351588011;4,089109898;-0,602313817
16,02618604;-2,252631664;3,770552158;-0,701363862
16,03618604;-2,192126989;3,545804501;-0,948314071
16,04618604;-2,136282444;3,384155989;-1,233846068
16,05618604;-2,088964462;3,295229435;-1,518465757
16,06618604;-2,039595842;3,304954767;-1,827443838
16,07618604;-1,976957917;3,33916831;-2,143012047
16,08618604;-1,909922004;3,260138512;-2,389819384
16,09618604;-1,859477162;3,01401329;-2,52051115
16,10618604;-1,817872882;2,70304966;-2,55587554
16,11618604;-1,747999787;2,462728977;-2,499621153
16,12618604;-1,644829631;2,33368206;-2,171896219
16,13618604;-1,535112143;2,328258991;-1,22818017
16,14618604;-1,61838448;2,249658108;0,429383397
16,15618604;-2,093922377;1,795508385;2,283998489
16,16618604;-2,677289009;1,143149018;3,432595015
16,17618604;-2,808921814;0,805972338;3,27165556
16,18618604;-2,34064579;0,943845868;1,950544715
16,19618604;-1,846833706;1,064363956;0,157786191
16,20618604;-1,821646929;0,775519907;-1,319664001
16,21618604;-1,993421197;0,392384678;-1,907033682
16,22618604;-1,838669181;0,379551739;-1,486897588
16,23618604;-1,167840719;0,837711811;-0,492732525
16,24618604;-0,207255855;1,525746584;0,383915633
16,25618604;0,560375214;2,017142057;0,744641721
16,26618604;0,757074356;1,998656988;0,737324595
16,27618604;0,443534315;1,555182338;0,75227505
16,28618604;0,005307128;1,046292067;1,031935692
16,29618604;-0,202961192;0,776232183;1,533852696
16,30618604;-0,120226413;0,786865592;2,087742329
16,31618604;0,122420594;0,962545872;2,575479507
16,32618604;0,44068113;1,21727097;2,901848316
16,33618604;0,806833565;1,498038888;2,926733732
16,34618604;1,110380054;1,693024993;2,543616533
16,35618604;1,173011541;1,662808895;1,827896237
16,36618604;0,953558385;1,391372442;0,983313441
16,37618604;0,570568979;0,989089012;0,206638381
16,38618604;0,174351662;0,585640788;-0,380450279
16,39618604;-0,129046783;0,278653502;-0,716849804
16,40618604;-0,246830955;0,156328723;-0,777701318
16,41618604;-0,131979808;0,254683584;-0,615108371
16,42618604;0,118294127;0,488053501;-0,354841918
16,43618604;0,335786313;0,707520545;-0,141640171
16,44618604;0,424378604;0,808763742;-0,065810516
16,45618604;0,390530109;0,772299469;-0,128482535
16,46618604;0,276375204;0,628664196;-0,269019753
16,47618604;0,124657363;0,439584583;-0,40679431
16,48618604;-0,002469917;0,289392322;-0,487630844
16,49618604;-0,055731766;0,232212678;-0,499881446
16,50618604;-0,04958678;0,240853131;-0,451228321
16,51618604;-0,035921328;0,238954902;-0,348007083
16,52618604;-0,0454337;0,184513465;-0,208227858
16,53618604;-0,066881523;0,103245735;-0,072920047
16,54618604;-0,073087193;0,047735408;0,003882667
16,55618604;-0,057283979;0,034897164;-0,021091176
16,56618604;-0,037865322;0,039050244;-0,146385178
16,57618604;-0,03779399;0,029388821;-0,318240315
16,58618604;-0,041722439;0,019862605;-0,455356926
16,59618604;-0,006064073;0,053542908;-0,501865864
16,60618604;0,074422225;0,13353309;-0,465337723
16,61618604;0,154107928;0,212956905;-0,391025156
16,62618604;0,18621473;0,245376691;-0,313404799
16,63618604;0,169718444;0,232744977;-0,235547066
16,64618604;0,130407363;0,203116626;-0,15210858
16,65618604;0,08967822;0,176187068;-0,071207076
16,66618604;0,062596433;0,169118002;-0,011335003
16,67618604;0,039030015;0,177219748;0,01612792
16,68618604;-0,006076848;0,16545251;0,014793952
16,69618604;-0,075158939;0,109785691;-0,008007003
16,70618604;-0,139870778;0,029715659;-0,045597654
16,71618604;-0,170801163;-0,028667009;-0,08363118
16,72618604;-0,171053484;-0,04662288;-0,098595478
16,73618604;-0,161066279;-0,056750607;-0,07248462
16,74618604;-0,150690496;-0,106847338;-0,006103463
16,75618604;-0,127193287;-0,196751267;0,078110069
16,76618604;-0,068202719;-0,269702196;0,149333104
16,77618604;0,025798924;-0,277938068;0,184697643
16,78618604;0,122940131;-0,225506634;0,173548952
16,79618604;0,186411679;-0,149429992;0,109173536
16,80618604;0,208280027;-0,082454778;-0,010855925
16,81618604;0,211093813;-0,039281264;-0,17136541
16,82618604;0,220971361;-0,01794629;-0,340305626
16,83618604;0,244017169;-0,003797498;-0,486121237
16,84618604;0,265821636;0,016741142;-0,591335416
16,85618604;0,265426666;0,050385248;-0,641508818
16,86618604;0,249759734;0,115769915;-0,619700074
16,87618604;0,251319408;0,228566349;-0,514183521
16,88618604;0,26453346;0,35248062;-0,326990426
16,89618604;0,240071699;0,435751945;-0,076820813
16,90618604;0,144230396;0,472338647;0,220483765
16,91618604;0,002738201;0,494836211;0,543471217
16,92618604;-0,131313354;0,519019008;0,847409427
16,93618604;-0,242687464;0,512806952;1,084387302
16,94618604;-0,337999642;0,462106615;1,235987067
16,95618604;-0,41523248;0,392973393;1,319583058
16,96618604;-0,472217292;0,322660625;1,358064771
16,97618604;-0,525579214;0,219529867;1,364860296
16,98618604;-0,601671815;0,034201965;1,350518823
16,99618604;-0,693608105;-0,209561825;1,330512404
17,00618604;-0,752377212;-0,404360592;1,321004391
17,01618604;-0,722426295;-0,441067606;1,318142653
17,02618604;-0,578539789;-0,288061559;1,281390905
17,03618604;-0,34214741;0,004089204;1,14354074
17,04618604;-0,082937054;0,333944529;0,854328394
17,05618604;0,097963087;0,561408997;0,429209858
17,06618604;0,105282351;0,533719301;-0,048015404
17,07618604;-0,083547078;0,178763449;-0,512034059
17,08618604;-0,385920316;-0,421771377;-1,028248906
17,09618604;-0,59052527;-0,945460856;-1,825307131
17,10618604;-0,510989666;-1,063611269;-3,087888241
17,11618604;-0,219417006;-0,85510236;-4,637495041
17,12618604;0,049337659;-0,648482084;-5,88701582
17,13618604;0,147058025;-0,577237725;-6,18908453
17,14618604;0,106455557;-0,478264332;-5,347980976
17,15618604;0,020079788;-0,220921323;-3,790610552
17,16618604;-0,061815001;0,125782669;-2,200129747
17,17618604;-0,109102204;0,442001253;-1,115310311
17,18618604;-0,101858534;0,661617339;-0,757406473
17,19618604;-0,04704234;0,783329964;-0,972476661
17,20618604;0,021097565;0,809642076;-1,404817581
17,21618604;0,065236688;0,730054319;-1,73595047
17,22618604;0,073339507;0,553205013;-1,855687141
17,23618604;0,060557686;0,324326754;-1,852405906
17,24618604;0,0366804;0,093144625;-1,812349677
17,25618604;-0,001380811;-0,123001873;-1,745737433
17,26618604;-0,052507032;-0,305575609;-1,613338232
17,27618604;-0,10734345;-0,428633898;-1,388454318
17,28618604;-0,15155603;-0,501468778;-1,118681908
17,29618604;-0,173057094;-0,561161995;-0,895326912
17,30618604;-0,167341143;-0,617483556;-0,780483186
17,31618604;-0,153435096;-0,658144593;-0,717263937
17,32618604;-0,161589012;-0,684111714;-0,560881972
17,33618604;-0,198318377;-0,70555526;-0,22469753
17,34618604;-0,243841514;-0,72099334;0,240921259
17,35618604;-0,276998013;-0,726038575;0,688673615
17,36618604;-0,299029261;-0,743373752;0,99876529
17,37618604;-0,317407787;-0,78246659;1,138815999
17,38618604;-0,327118188;-0,804889619;1,137908936
17,39618604;-0,311589628;-0,75569886;1,04366672
17,40618604;-0,257098138;-0,614529252;0,892987907
17,41618604;-0,1730358;-0,423053175;0,698465943
17,42618604;-0,095503822;-0,244188577;0,445073754
17,43618604;-0,037967525;-0,132985875;0,192159563
17,44618604;-0,000178856;-0,096503496;0,00838175
17,45618604;0,01371017;-0,100486241;-0,094760716
17,46618604;0,014951516;-0,118200444;-0,095841303
17,47618604;0,006697521;-0,132419497;0,026603777
17,48618604;-0,020697268;-0,15135482;0,308189243
17,49618604;-0,076808035;-0,191516533;0,764679968
17,50618604;-0,153623521;-0,244995564;1,341265082
17,51618604;-0,219781116;-0,269903392;1,912119389
17,52618604;-0,229970589;-0,219912052;2,315344095
17,53618604;-0,153997213;-0,096145786;2,413850069
17,54618604;-0,002960707;0,058873456;2,194416046
17,55618604;0,175882593;0,204185501;1,808402061
17,56618604;0,359141916;0,344764233;1,465826631
17,57618604;0,559193492;0,510816157;1,267777681
17,58618604;0,756413221;0,680303574;1,151504159
17,59618604;0,871531606;0,767822742;0,983818054
17,60618604;0,833890915;0,705881059;0,690909326
17,61618604;0,672502041;0,530184746;0,309212327
17,62618604;0,491963863;0,352222979;-0,047673661
17,63618604;0,412560284;0,283248395;-0,215449169
17,64618604;0,457761884;0,383544087;0,100190274
17,65618604;0,325574487;0,595272422;1,36950624
17,66618604;-0,277079999;0,769313216;3,660632372
17,67618604;-1,135744572;0,785418749;6,209749699
17,68618604;-1,563541651;0,721490502;7,30325985
17,69618604;-1,016952157;0,772571981;6,83968401
17,70618604;0,078749903;0,800557673;3,881801605
17,71618604;0,726901948;0,446603626;0,10299661
17,72618604;0,511845648;-0,268491715;-3,231059551
17,73618604;-0,091695674;-0,856303275;-5,13201189
17,74618604;-0,386437714;-0,888295054;-5,125597954
17,75618604;-0,114950158;-0,381524503;-3,694428682
17,76618604;0,567030191;0,347530127;-1,883469462
17,77618604;1,272527933;0,929791808;-0,521790206
17,78618604;1,531820297;1,101818323;0,176176429
17,79618604;1,130665302;0,876383066;0,555328965
17,80618604;0,380871892;0,533147573;1,009121895
17,81618604;-0,091803201;0,397611946;1,589095712
17,82618604;0,106800497;0,596631944;2,043652058
17,83618604;0,7422176;0,921318531;2,074610233
17,84618604;1,272988915;1,059416652;1,652559876
17,85618604;1,422456145;0,918757021;1,015659809
17,86618604;1,300541282;0,652041078;0,432047069
17,87618604;1,10953474;0,439867765;0,064268947
17,88618604;0,924693346;0,338162541;-0,047490545
17,89618604;0,763171434;0,330920994;0,051882103
17,90618604;0,648091376;0,388980031;0,261005312
17,91618604;0,588703692;0,471969247;0,464985341
17,92618604;0,534427285;0,515827298;0,577184498
17,93618604;0,421348721;0,460715145;0,553557396
17,94618604;0,262926936;0,3116301;0,407587439
17,95618604;0,132195935;0,148275942;0,222474605
17,96618604;0,074794844;0,060378831;0,113114752
17,97618604;0,066435449;0,070222303;0,137043148
17,98618604;0,074096449;0,13962698;0,24975653
17,99618604;0,097149722;0,224955156;0,360868752
18,00618604;0,134281516;0,295028418;0,413508862
18,01618604;0,169736549;0,326383591;0,403908104
18,02618604;0,181085393;0,301658869;0,345675558
18,03618604;0,134205937;0,206578761;0,230791405
18,04618604;0,042233456;0,064278528;0,078958571
18,05618604;-0,063538618;-0,091508307;-0,081432745
18,06618604;-0,167294309;-0,239807665;-0,238706857
18,07618604;-0,242058277;-0,353891224;-0,371098667
18,08618604;-0,281356573;-0,424346685;-0,473092407
18,09618604;-0,27810204;-0,449195951;-0,537508249
18,10618604;-0,221962512;-0,425495416;-0,549886584
18,11618604;-0,123032749;-0,358261496;-0,506423533
18,12618604;-0,015960775;-0,268391639;-0,428224027
18,13618604;0,06319049;-0,182284147;-0,348617107
18,14618604;0,09952382;-0,116342679;-0,288890898
18,15618604;0,085360125;-0,082758196;-0,253475249
18,16618604;0,015106951;-0,093189336;-0,236269936
18,17618604;-0,076754808;-0,129534379;-0,227622032
18,18618604;-0,127589315;-0,144942626;-0,215049937
18,19618604;-0,111256994;-0,110879056;-0,188472778
18,20618604;-0,060926042;-0,048672274;-0,158767775
18,21618604;-0,012840375;0,001050779;-0,165273651
18,22618604;0,035673268;0,012282515;-0,260572016
18,23618604;0,077486202;-0,034078471;-0,451540262
18,24618604;0,063988954;-0,144716918;-0,666548669
18,25618604;-0,049724117;-0,282493591;-0,775692403
18,26618604;-0,242240325;-0,370095789;-0,656091988
18,27618604;-0,425479442;-0,359335691;-0,311708868
18,28618604;-0,517037749;-0,273146212;0,100982353
18,29618604;-0,503797114;-0,180453002;0,373726159
18,30618604;-0,419405788;-0,125822052;0,390095741
18,31618604;-0,293581605;-0,099333256;0,183525488
18,32618604;-0,151899904;-0,078573175;-0,129946396
18,33618604;-0,025011105;-0,054344565;-0,425959587
18,34618604;0,06222488;-0,023620712;-0,616346538
18,35618604;0,112726167;0,027238289;-0,661940992
18,36618604;0,14161782;0,10769584;-0,567416608
18,37618604;0,139886737;0,194713578;-0,373965681
18,38618604;0,077811971;0,243000463;-0,137658492
18,39618604;-0,052778512;0,232491598;0,106887795
18,40618604;-0,231868804;0,175822973;0,366289794
18,41618604;-0,426765501;0,096501365;0,661054194
18,42618604;-0,598174572;0,020110661;0,989452004
18,43618604;-0,71705848;-0,036927391;1,311833739
18,44618604;-0,774125278;-0,074589372;1,554266691
18,45618604;-0,789959371;-0,121690266;1,639709949
18,46618604;-0,775420904;-0,195895314;1,527244568
18,47618604;-0,683354735;-0,232246742;1,24313271
18,48618604;-0,452983886;-0,113836564;0,87939167
18,49618604;-0,099265121;0,196539402;0,546075284
18,50618604;0,260413378;0,580342174;0,312291235
18,51618604;0,495702803;0,841318727;0,133862063
18,52618604;0,587330341;0,865893364;-0,168746442
18,53618604;0,616606295;0,669348598;-0,782927573
18,54618604;0,647224784;0,306945771;-1,7407583
18,55618604;0,662395597;-0,185193747;-2,888771534
18,56618604;0,595822811;-0,785277188;-3,969176054
18,57618604;0,40745756;-1,452463508;-4,713960648
18,58618604;0,142393917;-2,058294773;-4,923199654
18,59618604;-0,08093024;-2,379952669;-4,560444355
18,60618604;-0,163536206;-2,258485794;-3,79082036
18,61618604;-0,116589673;-1,776440024;-2,866945744
18,62618604;-0,038112313;-1,236492753;-2,015977383
18,63618604;-0,011951419;-0,922131896;-1,373592257
18,64618604;-0,046589877;-0,897283673;-0,979854465
18,65618604;-0,099772945;-1,045307279;-0,831161201
18,66618604;-0,136058375;-1,217550993;-0,895272613
18,67618604;-0,148828477;-1,336506248;-1,10825181
18,68618604;-0,149284139;-1,413515568;-1,366609454
18,69618604;-0,150529742;-1,497602344;-1,564373136
18,70618604;-0,163320079;-1,605858207;-1,654046059
18,71618604;-0,192556664;-1,681902885;-1,660953283
18,72618604;-0,232579961;-1,645348072;-1,648367405
18,73618604;-0,27181226;-1,488990664;-1,672288299
18,74618604;-0,30249247;-1,283210397;-1,757263064
18,75618604;-0,327636659;-1,109457016;-1,876422763
18,76618604;-0,354496986;-1,00209868;-1,95924902
18,77618604;-0,383764446;-0,936949253;-1,928121686
18,78618604;-0,408673346;-0,863056123;-1,73866415
18,79618604;-0,422515541;-0,743318379;-1,395488262
18,80618604;-0,426521689;-0,591003299;-0,933900177
18,81618604;-0,426135242;-0,456903815;-0,402419776
18,82618604;-0,427681059;-0,373131037;0,15430595
18,83618604;-0,436465234;-0,323337704;0,704142511
18,84618604;-0,453474671;-0,283796668;1,216638684
18,85618604;-0,466646135;-0,232989848;1,636897206
18,86618604;-0,451345444;-0,136766344;1,9045223
18,87618604;-0,396264136;0,025603034;2,012736559
18,88618604;-0,315631986;0,242083818;2,022690773
18,89618604;-0,216611743;0,501539052;2,005777121
18,90618604;-0,07915765;0,823317111;1,956383109
18,91618604;0,096486464;1,176198006;1,787116051
18,92618604;0,250371873;1,429035544;1,43349731
18,93618604;0,300726265;1,444601297;0,944862545
18,94618604;0,218168214;1,208356977;0,476422548
18,95618604;0,048152741;0,853725791;0,21293667
18,96618604;-0,115648553;0,56744647;0,254331201
18,97618604;-0,156359598;0,492503613;0,539270222
18,98618604;-0,000845308;0,652327478;0,86587739
18,99618604;0,305675685;0,926511705;1,025473475
19,00618604;0,6071738;1,1205163;0,960099399
19,01618604;0,738973677;1,093795419;0,762524128
19,02618604;0,650388837;0,871035457;0,603199542
19,03618604;0,405009985;0,605488479;0,680418551
19,04618604;0,078951113;0,429093808;1,149232268
19,05618604;-0,318377644;0,350907087;2,079903364
19,06618604;-0,775782883;0,297359943;3,340453386
19,07618604;-1,097925067;0,273526281;4,530266762
19,08618604;-0,987149239;0,358916223;5,001072407
19,09618604;-0,400435328;0,511735976;4,124987602
19,10618604;0,200494468;0,481265485;2,044923306
19,11618604;0,261463106;0,092878468;-0,313065201
19,12618604;-0,128268555;-0,391478688;-1,916712165
19,13618604;-0,362394333;-0,527329445;-2,1716609
19,14618604;-0,027544901;-0,160838455;-1,284916878
19,15618604;0,71017468;0,479304463;0,001599059
19,16618604;1,35613358;1,011502385;0,967776358
19,17618604;1,54570508;1,206367135;1,408854604
19,18618604;1,232666492;1,100385427;1,639614105
19,19618604;0,718295574;0,905655801;1,942234278
19,20618604;0,424786359;0,812778413;2,226058722
19,21618604;0,509057403;0,836384237;2,20310235
19,22618604;0,733176827;0,839125633;1,789440155
19,23618604;0,776421666;0,712963939;1,210490465
19,24618604;0,594694316;0,510099649;0,74300009
19,25618604;0,362384766;0,348576635;0,484841555
19,26618604;0,235220224;0,289059103;0,380086184
19,27618604;0,260166377;0,33194834;0,354903668
19,28618604;0,415305942;0,449219376;0,352562577
19,29618604;0,625442624;0,577599704;0,319167584
19,30618604;0,762467682;0,62170583;0,215955928
19,31618604;0,743284345;0,530551016;0,035646655
19,32618604;0,601571739;0,349446446;-0,189356416
19,33618604;0,419143885;0,167036667;-0,389403731
19,34618604;0,249820411;0,041361533;-0,492068201
19,35618604;0,127704307;-0,007092495;-0,471003622
19,36618604;0,077526659;0,015820246;-0,360884726
19,37618604;0,084654279;0,069958277;-0,232389405
19,38618604;0,097153977;0,09923318;-0,155408889
19,39618604;0,080735415;0,078455001;-0,159679085
19,40618604;0,038866062;0,025473149;-0,217977643
19,41618604;-0,014169021;-0,028124053;-0,266083539
19,42618604;-0,062269595;-0,059766673;-0,254302472
19,43618604;-0,076644085;-0,058631789;-0,193989635
19,44618604;-0,038268812;-0,033872999;-0,151346311
19,45618604;0,033290651;-0,022293132;-0,195563152
19,46618604;0,09993051;-0,052501708;-0,329482704
19,47618604;0,142232105;-0,111022778;-0,488500655
19,48618604;0,161225975;-0,159221292;-0,599270046
19,49618604;0,162282079;-0,173317924;-0,627465427
19,50618604;0,153053954;-0,156536326;-0,57983011
19,51618604;0,143559679;-0,112884797;-0,472200274
19,52618604;0,143276483;-0,037541676;-0,324443847
19,53618604;0,169378832;0,070441611;-0,168304622
19,54618604;0,231949717;0,193878919;-0,037361756
19,55618604;0,310366392;0,298697084;0,04464056
19,56618604;0,365461498;0,353429168;0,072332375
19,57618604;0,377311796;0,350909233;0,057801384
19,58618604;0,371100813;0,318986624;0,018922547
19,59618604;0,372508228;0,292619169;-0,02316612
19,60618604;0,361428738;0,275761992;-0,046104413
19,61618604;0,302573383;0,252194524;-0,024787536
19,62618604;0,196753398;0,216694772;0,051263556
19,63618604;0,08049801;0,175894305;0,156480968
19,64618604;-0,017949484;0,121365555;0,239666075
19,65618604;-0,106654644;0,023870898;0,259657502
19,66618604;-0,203986421;-0,11827071;0,218145862
19,67618604;-0,303921193;-0,259559542;0,145488769
19,68618604;-0,373748511;-0,338126332;0,065123841
19,69618604;-0,378939599;-0,323723108;-0,026474956
19,70618604;-0,339572102;-0,257726282;-0,134529576
19,71618604;-0,313653946;-0,212764204;-0,238810122
19,72618604;-0,334468305;-0,221330136;-0,29290238
19,73618604;-0,400649309;-0,260205775;-0,245670527
19,74618604;-0,495101303;-0,293376118;-0,080321282
19,75618604;-0,59852165;-0,304141551;0,177681804
19,76618604;-0,680012941;-0,279753268;0,483511835
19,77618604;-0,712374151;-0,213844791;0,788518965
19,78618604;-0,700025618;-0,130443573;1,037118196
19,79618604;-0,672668099;-0,074461617;1,170629025
19,80618604;-0,664865494;-0,084070869;1,156571746
19,81618604;-0,690762401;-0,168438777;1,01201129
19,82618604;-0,717826068;-0,281866521;0,787483037
19,83618604;-0,675192297;-0,32491228;0,554096103
19,84618604;-0,507877767;-0,195755839;0,399704993
19,85618604;-0,227969095;0,133552253;0,396355718
19,86618604;0,091006868;0,588451385;0,534116387
19,87618604;0,348454207;1,015735388;0,70367837
19,88618604;0,44209069;1,214595675;0,77715838
19,89618604;0,334203213;1,047968864;0,658526778
19,90618604;0,127784148;0,583246469;0,225153178
19,91618604;0,022333587;0,070864268;-0,688771546
19,92618604;0,129328907;-0,301784486;-2,130932808
19,93618604;0,363042682;-0,572222352;-3,831728458
19,94618604;0,563063383;-0,819768727;-5,252431393
19,95618604;0,633524179;-0,993225038;-5,85886097
19,96618604;0,55150485;-1,010300517;-5,428817272
19,97618604;0,329476297;-0,930358171;-4,210906506
19,98618604;0,016222673;-0,910398722;-2,732413054
19,99618604;-0,286858529;-1,04221034;-1,516452551
20,00618604;-0,463475704;-1,255567551;-0,896371305
20,01618604;-0,46043089;-1,361854911;-0,877932072
20,02618604;-0,330569685;-1,2613132;-1,18165946
20,03618604;-0,180344418;-1,031558752;-1,421026349
20,04618604;-0,094662771;-0,845682621;-1,323451877
20,05618604;-0,098965965;-0,812099218;-0,8879022
20,06618604;-0,161200419;-0,883100808;-0,312824607
20,07618604;-0,222039163;-0,944372833;0,144571066
20,08618604;-0,229913101;-0,930696726;0,243914977
20,09618604;-0,171331346;-0,854848981;-0,161672056
20,10618604;-0,06650997;-0,764551163;-1,025502205
20,11618604;0,035630684;-0,746485651;-2,042182922
20,12618604;0,061531812;-0,905105412;-2,768135309
20,13618604;-0,025858542;-1,211630702;-2,87393713
20,14618604;-0,180221975;-1,480777144;-2,317664862
20,15618604;-0,306613594;-1,530302167;-1,320332527
20,16618604;-0,344333082;-1,332791805;-0,191128999
20,17618604;-0,312127262;-1,021865487;0,837462664
20,18618604;-0,264669716;-0,74173528;1,647845745
20,19618604;-0,234619781;-0,54567498;2,173979521
20,20618604;-0,213371038;-0,400071234;2,353192329
20,21618604;-0,177633896;-0,250031203;2,160346031
20,22618604;-0,124820247;-0,082256757;1,657392144
20,23618604;-0,072707124;0,080509722;0,990939319
20,24618604;-0,037446927;0,210533828;0,330811352
20,25618604;-0,030194737;0,281910181;-0,183415845
20,26618604;-0,066728219;0,284463137;-0,456663191
20,27618604;-0,146337271;0,251301289;-0,466084033
20,28618604;-0,235928193;0,238219261;-0,26900804
20,29618604;-0,269192219;0,303335637;0,026990233
20,30618604;-0,171444193;0,483378768;0,298973888
20,31618604;0,071822427;0,747617304;0,444408357
20,32618604;0,368496746;0,984304607;0,429130018
20,33618604;0,566224277;1,067655802;0,316841394
20,34618604;0,578088403;0,97605592;0,216180563
20,35618604;0,44609046;0,799185336;0,183880016
20,36618604;0,313726336;0,666094065;0,227689102
20,37618604;0,302919388;0,683674157;0,467381805
20,38618604;0,400003076;0,91758275;1,237380624
20,39618604;0,380747318;1,270152807;2,705458879
20,40618604;0,034882259;1,497583151;4,495112896
20,41618604;-0,452699631;1,475480676;5,783857346
20,42618604;-0,692676544;1,228354812;5,650924683
20,43618604;-0,701398969;0,714787662;3,786257505
20,44618604;-0,96692574;-0,147534966;0,871549666
20,45618604;-1,634116411;-1,08200264;-1,862701893
20,46618604;-2,200765371;-1,549396038;-3,204905033
20,47618604;-2,138883352;-1,318963408;-2,665729523
20,48618604;-1,342382908;-0,580772281;-0,908567548
20,49618604;-0,029733758;0,357815415;0,867991745
20,50618604;1,407368422;1,206825018;1,764330029
20,51618604;2,327597857;1,623752356;1,653957725
20,52618604;2,262355804;1,442192078;1,063328147
20,53618604;1,507873774;0,929918528;0,565414071
20,54618604;0,74865216;0,501802027;0,387708873
20,55618604;0,361451089;0,341395795;0,489195853
20,56618604;0,21344237;0,35622701;0,810576797
20,57618604;0,125896573;0,444195449;1,299427748
20,58618604;0,216620252;0,646171868;1,819722176
20,59618604;0,580941558;0,969363689;2,175987482
20,60618604;1,064592838;1,277953267;2,216412067
20,61618604;1,424968719;1,408388257;1,918120623
20,62618604;1,573848248;1,329310536;1,381356597
20,63618604;1,544202924;1,115678668;0,767215908
20,64618604;1,338739872;0,834114432;0,23319532
20,65618604;0,954927504;0,526584208;-0,123720497
20,66618604;0,472441941;0,253296405;-0,267577201
20,67618604;0,042115282;0,093199983;-0,195364058
20,68618604;-0,204286635;0,086991124;0,038286909
20,69618604;-0,237357974;0,192887753;0,296968162
20,70618604;-0,138511255;0,303438902;0,404622465
20,71618604;-0,035666883;0,310587823;0,25633055
20,72618604;-0,01663468;0,177941561;-0,108277127
20,73618604;-0,076647282;-0,035253808;-0,548462152
20,74618604;-0,160284847;-0,227466598;-0,90520227
20,75618604;-0,221829444;-0,326055676;-1,075904489
20,76618604;-0,247064114;-0,320072532;-1,051254272
20,77618604;-0,248686597;-0,247743338;-0,900224149
20,78618604;-0,246209219;-0,163858771;-0,72428298
20,79618604;-0,254896522;-0,113533154;-0,607079029
20,80618604;-0,277695358;-0,111361325;-0,5746997
20,81618604;-0,302200764;-0,13551116;-0,584729493
20,82618604;-0,290286601;-0,135933816;-0,568554699
20,83618604;-0,204048157;-0,071703188;-0,490418017
20,84618604;-0,0575331;0,05022236;-0,360791028
20,85618604;0,094065517;0,192063749;-0,199562922
20,86618604;0,210560441;0,325855523;-0,017515119
20,87618604;0,299555182;0,442150325;0,16305393
20,88618604;0,37560308;0,520223141;0,289582878
20,89618604;0,421130478;0,531156778;0,298496932
20,90618604;0,403660059;0,471182495;0,179830194
20,91618604;0,314711094;0,371788532;0,005684003
20,92618604;0,184128076;0,278882384;-0,117012329
20,93618604;0,05305957;0,217092946;-0,133426636
20,94618604;-0,051307205;0,177378386;-0,084351934
20,95618604;-0,121186703;0,133191347;-0,05239312
20,96618604;-0,157323077;0,076021284;-0,084967278
20,97618604;-0,168698534;0,024089145;-0,160660654
20,98618604;-0,16603379;-0,000752686;-0,220558286
20,99618604;-0,149790898;0,010006359;-0,231587738
21,00618604;-0,119920865;0,047573585;-0,208205506
21,01618604;-0,090169013;0,08748617;-0,193786293
21,02618604;-0,080911078;0,096222438;-0,232929155
21,03618604;-0,097743779;0,058857489;-0,332466811
21,04618604;-0,127857611;-0,000599381;-0,453057349
21,05618604;-0,149315014;-0,029001299;-0,529767454
21,06618604;-0,135223702;0,024363818;-0,512422621
21,07618604;-0,071108066;0,167692468;-0,400765359
21,08618604;0,000406685;0,341754556;-0,227089718
21,09618604;0,00633768;0,463115871;-0,031272132
21,10618604;-0,072480358;0,505540967;0,159410805
21,11618604;-0,206068814;0,4954409;0,340319455
21,12618604;-0,370258689;0,457860887;0,522825062
21,13618604;-0,555891037;0,39677304;0,710771918
21,14618604;-0,740616381;0,310693234;0,875636756
21,15618604;-0,899083912;0,194014132;0,965631187
21,16618604;-1,029493451;0,038108055;0,953921437
21,17618604;-1,126461148;-0,1308247;0,863833308
21,18618604;-1,168777585;-0,255458653;0,73887682
21,19618604;-1,121206164;-0,259884268;0,628725946
21,20618604;-0,931824148;-0,048223004;0,591595232
21,21618604;-0,563477516;0,463946253;0,674701512
21,22618604;-0,032731727;1,28570044;0,852245986
21,23618604;0,569057226;2,296061754;1,01100421
21,24618604;1,096849799;3,268498898;1,031563044
21,25618604;1,392693639;3,918395996;0,86022532
21,26618604;1,387186408;4,023126602;0,476570517
21,27618604;1,181727648;3,542330742;-0,184537947
21,28618604;1,012222052;2,631710529;-1,246552348
21,29618604;1,061561942;1,482215405;-2,798179865
21,30618604;1,277156949;0,192447007;-4,708622456
21,31618604;1,427351356;-1,108390212;-6,538855553
21,32618604;1,325794101;-2,11482501;-7,656598568
21,33618604;1,004429102;-2,429515839;-7,600542068
21,34618604;0,623185635;-1,913452268;-6,432681084
21,35618604;0,326432556;-0,800518274;-4,70378685
21,36618604;0,188249215;0,493100882;-3,08127594
21,37618604;0,2062466;1,566088319;-1,999149919
21,38618604;0,322107017;2,144481182;-1,558308005
21,39618604;0,447377592;2,135023117;-1,608044863
21,40618604;0,529933512;1,659302115;-1,928243041
21,41618604;0,558616459;0,985792935;-2,316732407
21,42618604;0,519585431;0,35477379;-2,616706848
21,43618604;0,385329425;-0,116981454;-2,725281
21,44618604;0,15301457;-0,372725397;-2,570796251
21,45618604;-0,114614807;-0,37401253;-2,156373024
21,46618604;-0,31190902;-0,113784403;-1,593733191
21,47618604;-0,357187301;0,321866423;-1,079551816
21,48618604;-0,249619201;0,73091346;-0,792070508
21,49618604;-0,072396256;0,902984679;-0,770191491
21,50618604;0,05389636;0,765402853;-0,896787524
21,51618604;0,045123897;0,454055965;-0,981596172
21,52618604;-0,097995028;0,205977261;-0,876636446
21,53618604;-0,301006258;0,177881941;-0,551547408
21,54618604;-0,471523166;0,364941984;-0,088442199
21,55618604;-0,560722291;0,637059808;0,369707227
21,56618604;-0,575012684;0,853683233;0,689183533
21,57618604;-0,546489418;0,952660918;0,814649999
21,58618604;-0,509704649;0,942867458;0,786442935
21,59618604;-0,491359144;0,863031626;0,696204722
21,60618604;-0,486608833;0,777076423;0,618115962
21,61618604;-0,467653275;0,736752868;0,572477818
21,62618604;-0,423719615;0,721714079;0,528307855
21,63618604;-0,374449015;0,663736999;0,426024526
21,64618604;-0,345612735;0,533773601;0,238984719
21,65618604;-0,362124979;0,370479077;0,0326242
21,66618604;-0,46773845;0,222772688;-0,05997321
21,67618604;-0,670718789;0,122768722;0,046089508
21,68618604;-0,887272;0,103970736;0,317676067
21,69618604;-1,003068566;0,176836491;0,641607821
21,70618604;-0,985710979;0,2967861;0,906009257
21,71618604;-0,897838295;0,391280651;1,049924493
21,72618604;-0,811533868;0,41704765;1,066855192
21,73618604;-0,767114758;0,388082534;1,007991314
21,74618604;-0,781099617;0,348436117;0,955250084
21,75618604;-0,838589072;0,331436276;0,963320911
21,76618604;-0,900940597;0,342061162;1,02202189
21,77618604;-0,951497257;0,363386571;1,078295588
21,78618604;-1,014960289;0,381393552;1,100063801
21,79618604;-1,120635509;0,401480794;1,114628911
21,80618604;-1,278918862;0,440037042;1,180557609
21,81618604;-1,468240142;0,494629651;1,285004258
21,82618604;-1,645805955;0,529152095;1,313599944
21,83618604;-1,843693137;0,509120226;1,232704759
21,84618604;-2,142742634;0,441779822;1,093271613
21,85618604;-2,270329714;0,467884302;1,002714038
21,86618604;-1,703921318;0,731036961;0,937338889
21,87618604;-0,551636815;1,041855812;0,460806698
21,88618604;0,303723156;1,010552764;-0,606312513
21,89618604;0,207232445;0,551565528;-1,796240926
21,90618604;-0,479522705;0,046599459;-2,430579424
21,91618604;-1,036511421;-0,112532407;-2,099268913
21,92618604;-1,235659122;0,089038387;-0,988645017
21,93618604;-1,196821809;0,437977016;0,346086502
21,94618604;-1,006532788;0,7509166;1,37793386
21,95618604;-0,629811823;0,985046625;1,878014326
21,96618604;-0,074440323;1,170075417;1,927325368
21,97618604;0,487898082;1,280903339;1,681860328
21,98618604;0,846313953;1,262256503;1,269939899
21,99618604;0,936712921;1,124355316;0,823126495
22,00618604;0,852943301;0,956381738;0,497708529
22,01618604;0,715117693;0,861617863;0,435475141
22,02618604;0,59011966;0,885409951;0,651247978
22,03618604;0,540801167;1,012476563;1,008296847
22,04618604;0,613489091;1,170124292;1,286547899
22,05618604;0,756629348;1,237662792;1,293199658
22,06618604;0,853952587;1,120643973;0,965539634
22,07618604;0,838537931;0,834563732;0,408452988
22,08618604;0,745139956;0,505460024;-0,162489682
22,09618604;0,633102596;0,26676169;-0,549758852
22,10618604;0,511358023;0,171615601;-0,668047667
22,11618604;0,367952734;0,189882338;-0,561826289
22,12618604;0,21273759;0,256365687;-0,347881436
22,13618604;0,079504721;0,312397689;-0,148280203
22,14618604;0,002500791;0,327728212;-0,035830833
22,15618604;-0,015572189;0,299243242;-0,019702913
22,16618604;-0,012379396;0,234447315;-0,073124453
22,17618604;-0,031061338;0,157559425;-0,143711925
22,18618604;-0,073041417;0,111967094;-0,167237878
22,19618604;-0,104574375;0,13113983;-0,102785818
22,20618604;-0,093095653;0,209253088;0,033626005
22,21618604;-0,037306394;0,30038026;0,173449934
22,22618604;0,029615585;0,34806031;0,239514902
22,23618604;0,068057932;0,321853638;0,201773077
22,24618604;0,050996337;0,231432304;0,097372226
22,25618604;-0,015069689;0,120523445;-0,00069839
22,26618604;-0,085156783;0,048246425;-0,028872481
22,27618604;-0,103302158;0,055336792;0,024097662
22,28618604;-0,030641878;0,137950197;0,108709358
22,29618604;0,11675895;0,238558874;0,145666555
22,30618604;0,230534837;0,275347859;0,092714518
22,31618604;0,193672389;0,227541119;7,98465E-05
22,32618604;0,027736532;0,172715351;-0,027650297
22,33618604;-0,107732043;0,207170695;0,064175263
22,34618604;-0,086912341;0,329842538;0,20507659
22,35618604;0,034575649;0,431422144;0,255024284
22,36618604;0,121011041;0,414840698;0,13171792
22,37618604;0,122074597;0,283671051;-0,129813313
22,38618604;0,069911435;0,110425524;-0,421712816
22,39618604;0,00454699;-0,031997137;-0,645372331
22,40618604;-0,058683954;-0,104693614;-0,749842346
22,41618604;-0,107574478;-0,100168981;-0,729089737
22,42618604;-0,130337104;-0,030565225;-0,605409682
22,43618604;-0,134430572;0,075991474;-0,421598911
22,44618604;-0,137529671;0,184081227;-0,233491287
22,45618604;-0,158570811;0,257741183;-0,09691444
22,46618604;-0,213554144;0,267753929;-0,051796932
22,47618604;-0,298413903;0,214026839;-0,096348062
22,48618604;-0,385447621;0,133963197;-0,182466194
22,49618604;-0,444575518;0,084399842;-0,238580167
22,50618604;-0,466878235;0,104820304;-0,210334748
22,51618604;-0,459193796;0,191119418;-0,100590572
22,52618604;-0,427117884;0,304564208;0,03230162
22,53618604;-0,377877116;0,395924538;0,115139663
22,54618604;-0,308378756;0,43988055;0,110260509
22,55618604;-0,208937958;0,451687187;0,037526771
22,56618604;-0,104708523;0,458079159;-0,052780639
22,57618604;-0,048595622;0,477444589;-0,107081555
22,58618604;-0,070005119;0,523667157;-0,082140714
22,59618604;-0,163856655;0,596151769;0,031007042
22,60618604;-0,331631094;0,670856118;0,203738362
22,61618604;-0,583473206;0,721488357;0,399058759
22,62618604;-0,878308952;0,760585427;0,604608059
22,63618604;-1,118605256;0,836525798;0,830440462
22,64618604;-1,216757894;0,985916436;1,081162572
22,65618604;-1,124044418;1,212462068;1,341420531
22,66618604;-0,820336163;1,488382697;1,569776058
22,67618604;-0,328717232;1,756828666;1,7080127
22,68618604;0,253593415;1,948588967;1,712884426
22,69618604;0,780665219;2,014344215;1,579800606
22,70618604;1,126378059;1,946681261;1,328738809
22,71618604;1,219952822;1,757560134;0,96355623
22,72618604;1,079215407;1,441926003;0,444955587
22,73618604;0,87098968;0,977007687;-0,309343278
22,74618604;0,885094821;0,355838418;-1,397136331
22,75618604;1,282667398;-0,369853079;-2,866916895
22,76618604;1,88328743;-1,044767499;-4,578773975
22,77618604;2,275938272;-1,475954413;-6,150946617
22,78618604;2,179148436;-1,53653872;-7,072253227
22,79618604;1,694062948;-1,185055614;-6,965208054
22,80618604;1,151793718;-0,473425627;-5,881941795
22,81618604;0,823224485;0,445278168;-4,296973705
22,82618604;0,745385885;1,305537581;-2,822335958
22,83618604;0,77260077;1,844678998;-1,885704041
22,84618604;0,761686265;1,976798177;-1,58409524
22,85618604;0,673098207;1,814269185;-1,749466896
22,86618604;0,569805622;1,544152856;-2,144381046
22,87618604;0,517671227;1,291644216;-2,606939077
22,88618604;0,497557372;1,080841064;-3,053510666
22,89618604;0,413709015;0,879137218;-3,414054871
22,90618604;0,183144361;0,680836916;-3,576161146
22,91618604;-0,176172167;0,54476577;-3,427685022
22,92618604;-0,573448777;0,523885429;-2,969453812
22,93618604;-0,885762334;0,62636143;-2,345578194
22,94618604;-0,995322347;0,824465811;-1,771378875
22,95618604;-0,882676005;1,038291454;-1,424814343
22,96618604;-0,669094205;1,150503397;-1,351545095
22,97618604;-0,547630668;1,061721563;-1,465183616
22,98618604;-0,639285922;0,788479567;-1,586012602
22,99618604;-0,916446805;0,477784187;-1,521058083
23,00618604;-1,250083685;0,306214362;-1,167847157
23,01618604;-1,486302495;0,38242197;-0,560501933
23,02618604;-1,531943798;0,430785507;0,151068434
23,03618604;-1,087578058;0,670439839;0,771832108
23,04618604;-0,76906091;1,103696346;1,14127636
23,05618604;-0,938194871;1,187287092;1,20494163
23,06618604;-1,072342277;1,031145692;1,036379337
23,07618604;-1,132888198;0,808280408;0,772230268
23,08618604;-1,060304523;0,603571117;0,51327008
23,09618604;-0,889700353;0,446704745;0,290636867
23,10618604;-0,730861247;0,28058365;0,089507885
23,11618604;-0,656664729;0,057934463;-0,103787623
23,12618604;-0,630547523;-0,191271663;-0,273671091
23,13618604;-0,58701843;-0,380106419;-0,353914648
23,14618604;-0,522954941;-0,422785938;-0,245487407
23,15618604;-0,464867175;-0,3087897;0,061522231
23,16618604;-0,395677537;-0,113669425;0,431984246
23,17618604;-0,262513876;0,03550506;0,663428247
23,18618604;-0,077490456;0,020485409;0,639720261
23,19618604;0,057991952;-0,195691973;0,412765741
23,20618604;0,063819677;-0,540156007;0,126565158
23,21618604;-0,031297684;-0,849564195;-0,078262307
23,22618604;-0,137387022;-0,980242014;-0,132796377
23,23618604;-0,204066262;-0,913085818;-0,05445103
23,24618604;-0,273957461;-0,688217938;0,147668049
23,25618604;-0,530477524;-0,238966614;0,622628868
23,26618604;-1,300871372;0,506765246;1,564956546
23,27618604;-2,575269699;1,405766129;2,763967276
23,28618604;-3,819393635;2,173964739;3,657401323
23,29618604;-4,299949169;2,61851573;3,848022461
23,30618604;-3,571962357;2,586046934;3,243168354
23,31618604;-2,167342663;1,826275945;1,917123079
23,32618604;-1,048047662;0,306596577;0,115435623
23,33618604;-0,594402611;-1,405164599;-1,564466834
23,34618604;-0,435906321;-2,277066708;-2,34741044
23,35618604;-0,143170029;-1,668775082;-1,923364997
23,36618604;0,232849315;-0,076778226;-0,750938952
23,37618604;0,452836961;1,436602831;0,415566772
23,38618604;0,353467494;2,228610516;1,129545331
23,39618604;-0,06215781;2,388015985;1,423807144
23,40618604;-0,614503682;2,332621813;1,540701389
23,41618604;-1,059281468;2,325408936;1,630745769
23,42618604;-1,277827621;2,377768993;1,700187683
23,43618604;-1,263518095;2,417859554;1,716771364
23,44618604;-0,972342551;2,434103489;1,699931145
23,45618604;-0,410958022;2,426510572;1,678299189
23,46618604;0,242569298;2,344155788;1,621821046
23,47618604;0,735495567;2,114416361;1,451665044
23,48618604;0,951910377;1,711426973;1,116444111
23,49618604;0,954015076;1,204218745;0,665793836
23,50618604;0,84947902;0,730528057;0,234862506
23,51618604;0,712139964;0,412685901;-0,049661305
23,52618604;0,578442872;0,303975463;-0,139284164
23,53618604;0,460949361;0,385210216;-0,064531907
23,54618604;0,364702433;0,577659309;0,098123848
23,55618604;0,293940365;0,763441801;0,253597677
23,56618604;0,229148701;0,844821334;0,324340582
23,57618604;0,13995488;0,805532634;0,29488042
23,58618604;0,0405109;0,699826539;0,210166529
23,59618604;-0,021062432;0,594319582;0,125414297
23,60618604;-0,020121308;0,514894724;0,059417479
23,61618604;0,014437305;0,446192682;-0,006488856
23,62618604;0,030098923;0,375211298;-0,089257695
23,63618604;0,001192374;0,315328568;-0,177445456
23,64618604;-0,062769964;0,286491245;-0,24499768
23,65618604;-0,134693533;0,282512754;-0,281502426
23,66618604;-0,196801305;0,268151045;-0,307611167
23,67618604;-0,253083467;0,212719485;-0,353547364
23,68618604;-0,304493934;0,120964192;-0,426753789
23,69618604;-0,329041958;0,024738563;-0,504877687
23,70618604;-0,299380571;-0,041174158;-0,550970376
23,71618604;-0,214444175;-0,052899878;-0,535579205
23,72618604;-0,102035262;-0,002951125;-0,453749329
23,73618604;0,002721167;0,100972772;-0,326675296
23,74618604;0,078071743;0,230470955;-0,190907568
23,75618604;0,119603612;0,345270991;-0,07960479
23,76618604;0,130378619;0,405187786;-0,02006169
23,77618604;0,109029807;0,381998241;-0,03543799
23,78618604;0,053277817;0,286799967;-0,119677067
23,79618604;-0,018423241;0,177203789;-0,221843272
23,80618604;-0,066419482;0,129878253;-0,270509154
23,81618604;-0,064080514;0,182339504;-0,232435182
23,82618604;-0,041818254;0,306316584;-0,139975101
23,83618604;-0,05896182;0,437693805;-0,053823967
23,84618604;-0,131144091;0,519126534;-0,015310293
23,85618604;-0,216763973;0,522017002;-0,033158638
23,86618604;-0,265599132;0,44059065;-0,104041003
23,87618604;-0,269950241;0,296947926;-0,218360901
23,88618604;-0,252577782;0,141408086;-0,347209662
23,89618604;-0,228733495;0,023199122;-0,449336499
23,90618604;-0,196751267;-0,038067598;-0,498874307
23,91618604;-0,153423384;-0,049249299;-0,49837926
23,92618604;-0,104301833;-0,023720786;-0,465278119
23,93618604;-0,055055734;0,020588676;-0,419434518
23,94618604;-0,009661422;0,060174424;-0,379227042
23,95618604;0,022286745;0,084241211;-0,353988111
23,96618604;0,032499637;0,11628519;-0,327648342
23,97618604;0,024433017;0,20039013;-0,262357384
23,98618604;0,007511955;0,355913997;-0,134467825
23,99618604;-0,016342973;0,553516984;0,041986462
24,00618604;-0,05009567;0,746251404;0,234868899
24,01618604;-0,086702608;0,910159171;0,422071576
24,02618604;-0,137952328;1,047834635;0,59255445
